 acc_x, acc_y, acc_z, gyro_x, gyro_y, gyro_z, lacc_x, lacc_y, lacc_z, eul_x, eul_y, eul_z,label
1.0788729863593756,1.1458897348508192,-1.170860040381783,2.4068591441444984,-0.6769488119048341,-2.272050608079094,0.8637581038906761,1.0149340539547844,-1.2928712313361856,-0.7279257829255893,0.8293852072194589,0.3979522926208445,3
-0.3920791104728162,-0.09083895235461004,0.05109644609621132,0.058250619495862126,0.07168993555010825,1.159221196651698,-2.0363318085298032,-1.0798568743940538,2.9825850548009205,0.5979381134445786,1.2326743443275645,0.7136171997162287,3
-1.1169727697030682,0.883221695090374,1.4948730591004658,-0.45125772312407314,0.1318197184542146,-0.1595248849844752,-0.05155266581013959,-0.28184128264211544,0.160571724497024,1.5058214014260216,-1.40451398104976,-1.45486346641728,2
-0.15397535379134586,-0.8131760616958345,-1.0190883748638158,-1.0872661119270868,-0.6824568836212408,-2.2564366544725214,-0.8608800832298082,-1.0923258680151777,-2.258296844334887,0.8076812964631208,0.2725235667005868,-0.11699324277997346,3
-1.3074557750482443,1.1021117282240782,1.5804878447772677,-0.07340848240430747,0.08913216265206275,-0.08018912071324302,-0.15753601809128667,0.004945570643737382,0.2030080151782856,1.3712775268461377,-1.5174349394400297,-1.4515695717345456,2
0.15291393259810412,0.9051106984037445,-0.33806167061652576,-0.7143695646957285,-0.0572907438090817,-0.180624822290654,-0.5718345770084982,0.7406161942900555,-0.009173438228022395,0.7899665006000683,0.5267570387335365,-0.1718914874922142,3
2.094782348200313,0.2046625923758908,-0.25633846610685096,-0.517087274074158,-1.9649195815912648,-3.7199283060290815,2.896711497647225,0.2543254430662181,0.7016344306831094,0.4799575729966487,0.6158032802070059,0.2947435925618322,3
0.9783402890938653,0.5548866453898175,-0.48983333613449326,-1.4894660956315233,1.574934508152767,-0.15699289250773374,0.8926626545128071,-0.5810971295490924,0.012044707112608393,0.5087441162741091,0.7971220762508103,-0.5836283228340197,3
-1.0958079913313825,2.21845089720597,1.5337888707717393,-0.07093213566010366,0.051493672589950384,-0.09116108811245598,0.15077918854477756,0.11716651323385371,0.06509007046418541,1.3286734427954963,-1.4851718084713812,-1.829269495354762,2
-1.2122142723756564,-0.34256249045836995,1.4092582734236638,-0.12231633060233285,0.08913216265206275,-0.024907284971054634,-0.09009206663964762,0.204449468581722,0.19239894250797018,-0.7351002752501256,-1.4651686672708195,-0.8202397575437771,2
0.5815006946247491,-0.8788430716359458,-0.6766292321566071,-0.1313962686644135,0.31542210900110423,1.8660690964086872,0.1411443383374006,-0.3566552443688597,-0.030391583568653183,-1.218359906394199,0.5996717147226817,0.8750180391702167,4
-1.2809998020836366,1.025500216627282,1.4831983155990835,-0.30432781630131334,0.18093335792550755,-0.06457516710667073,-0.19607541892079472,-0.007523422977386649,0.012044707112608393,1.4997097968532687,-1.4735570813226677,-1.4241204493784252,2
-1.2227966615614994,1.4085577746112643,1.5415720331059943,-0.10828369905184457,0.051493672589950384,-0.09369308058919742,-0.12863146746915566,0.204449468581722,0.18178986983765477,1.497495447370387,-1.4574255158383436,-1.492743255268726,2
0.4756768027663184,-0.27689548051825863,-0.559881797142786,-0.11344275476893585,0.1607370949653497,0.28905978214488554,-0.08045721643227062,0.10469751961272968,0.2242261605189164,-1.1232314526096068,0.639677997123806,0.7202049890816978,1
-1.4609004182429692,0.7299986718967811,1.634969981117051,-0.1262372129473222,0.09464023436846944,-0.10677504171902827,-0.19607541892079472,0.09222852599160565,0.21361708784860098,1.3547141927141835,-1.6587474530827102,-1.297305504093149,2
-1.2175054669685779,1.4195022762679494,1.572704682443013,-0.11220458139683394,0.20388365674386874,-0.06457516710667073,0.08333523709313853,0.5660502835943191,0.1393535791563932,1.4919152866735255,-1.5580864844605269,-1.3862406605269793,2
-1.2651262183048717,1.3866687712978938,1.584379425944395,-0.14047620672649416,0.10611538377765004,-0.1012890580194218,-0.0611875160175166,-0.05739939746188281,0.1499626518267086,1.475883396417463,-1.5296949292081163,-1.5783845170198216,2
0.2799026028282205,0.5658311470465027,-0.10456680058888365,0.7611203703923787,-1.4315546370525503,-0.7950549966465799,-0.47548607493472794,0.528643302730947,1.2426971368691948,-0.1998477182479928,0.6880726935767787,0.26729447020571184,3
0.6979069756690235,-0.4848410119952776,-0.7466776931648997,-0.2384982653512286,0.4935164278315871,0.12785626112567966,0.24712769061854767,-0.14468235280975109,0.05448099779387,-1.1142854806987654,0.7242074002616652,0.960659300921312,1
0.46509441358047554,0.28127410397268715,-0.8517503846773388,0.48500770841365315,-0.24640120607237798,-0.23084267307935946,0.5072686462177268,1.800480652085599,-1.8445430101925864,-1.056180950267953,0.03506692277133372,0.5214733432233861,3
0.36456171631496537,-1.7544032041707627,-1.1630768780475285,-2.3407102889515854,0.7142983024642219,0.08565638651332214,-0.1479011678839097,-2.8753919558359153,-2.6296143877959257,1.6470083244545504,0.4867507563324121,-0.6934248122585012,3
2.0736175698286266,-1.404179151156836,-0.1590489369286667,-0.4035880482981497,-0.008636110314155954,0.40215544610600373,2.983425149513618,-0.7681320338659529,0.9986884654519405,0.3249531091949389,0.4583592010800016,0.7273417608942889,3
-1.3180381642340875,0.7737766785235217,1.6194036564485412,-0.3016451073284259,0.24106314082961391,-0.06204317462992927,-0.18644056871341771,-0.15715134643087508,0.33031688722207037,1.3668488278803745,-1.5135633637237922,-1.3796528711615101,8
-1.2439614399331855,0.46733063213633597,1.553246776607376,0.013057291414142462,0.10611538377765004,-0.06963915206015364,0.13150948813002358,0.16704248771834984,0.0969172884751316,1.3574599860729566,-1.6103527566297375,-1.1704905588078731,8
0.10000198666888786,-1.4807906627536325,-0.34973641411790796,1.207275508806433,-2.492776454413572,-1.3516713427835758,-0.9186891844740704,-2.326756236506457,0.7758979393753171,0.3582569254174776,0.8900398934405178,-0.013784542720960948,3
-0.5349413644816978,2.0214498673856363,-0.7739187613347913,2.6029032613939673,-0.6599655907792469,-0.05655719093032279,-1.7376514521011162,1.613445747768738,-1.6641887747972246,-1.3351889851110306,0.4299676458275911,-0.5973528840120799,3
-1.132846353481833,1.901060349162099,1.5610299389416313,-0.28369159343294825,0.03726448732256645,-0.05149320597683989,0.03516098605625347,0.06729053874935757,0.18178986983765477,1.3358479351200325,-1.4651686672708195,-1.7260607952957492,2
-1.3180381642340875,0.7190541702400959,1.5260057084374847,0.08920495379840983,-0.0917161920366235,-0.2544746028622797,-0.013013264980631562,0.05482154512823353,0.04387192512355459,1.3480711442655386,-1.578089625661089,-1.3450669769927985,2
0.6026654729964357,0.01860606421224221,0.1172533259373766,0.7726766551986631,-1.6206650993158467,-1.7209202456417043,0.32420649227756376,-0.14468235280975109,1.009297538122256,-0.8529922417187403,0.44222763559567735,-0.18561604867027437,3
0.6185390567752,-0.5505080219353891,0.18341020577854186,0.9210510976222085,-1.87311838631782,-1.7762020813838928,0.2663973910333017,-0.6434420976547125,1.518533026297395,-0.9006450425903516,0.5267570387335365,0.04111370199127978,3
-0.01640429437538565,0.01860606421224221,-0.7194366249950082,-0.7969144561691893,1.6208351057894894,1.520452123333479,-0.8512452330224313,-0.7556630402448288,-1.3353075220174473,1.3762376696877923,0.5028823218167363,-0.6006467786948142,3
0.4756768027663184,-0.45200750702522224,-0.602689189981187,-0.18422499920742827,0.2612594037897718,-0.0409432373237505,-0.08045721643227062,-0.044930403840758755,0.1711807971673394,-1.2599011026930573,0.643549572840044,0.7888277949719987,1
0.6079566675893572,-0.15650596229472138,-0.7466776931648997,-0.14171438009859608,0.0689358996919049,-0.08820709688959096,0.02552613584887647,0.1421045004761018,0.29848966921112424,-0.5601666661024817,0.7971220762508103,1.1182172632454432,1
0.5180063595096909,0.01860606421224221,-0.6377134204853334,-0.1301580952923116,-0.08896215617842015,-0.03292526114740257,-0.0611875160175166,0.204449468581722,0.1287445064860778,-1.1137540368228738,0.7164642488291892,0.6757374108647828,1
-1.402697277720832,0.8941661967470592,1.6077289129471595,-0.055454968508829805,0.045985600873543704,-0.05951118215318782,-0.15753601809128667,0.10469751961272968,0.1711807971673394,1.50024124072916,-1.6026096051972616,-1.3483608716755329,2
-1.545559531729714,-1.0977331047696497,1.5026562214347203,-0.21146481339367026,0.341585449654036,0.13334224482528617,-0.18644056871341771,0.16704248771834984,0.266662451200178,-0.7655697241345759,-1.7071421495356829,-0.6176652345556087,2
-0.3867879158798943,-1.5026796660670028,-0.5793397029784227,0.0634096752129534,-0.8403549394915659,-0.42074210883496843,-1.573858998575707,-1.2668917787109146,-0.15770045561243798,0.4517910475743951,0.5590201697021849,0.5247672379061208,3
0.7243629486336316,0.4016636221962246,-0.7933766671704282,-0.40998527738734286,0.07168993555010825,0.33632364171072593,0.12187463792264656,0.10469751961272968,0.2030080151782856,-0.5734527629997711,0.9661808825265286,0.7202049890816978,1
-1.1593023264464406,-0.988288088202798,-0.9412567515212683,0.3973037612231013,-1.2823776947332026,0.5473230147725137,-2.2386636628847203,0.9525890858491642,-2.1415970449614177,0.7163615237890849,-0.12624873207190856,0.7202049890816978,3
0.507423970323848,-0.2987844838316291,-0.7739187613347913,-0.09672741424556008,0.07168993555010825,-0.07512513575976011,-0.09009206663964762,0.11716651323385371,0.06509007046418541,-1.241654862954113,0.7287242385972755,1.0495944573551423,1
-1.5349771425438707,-1.0539550981429089,1.5104393837689754,-0.1984639929866002,0.31542210900110423,0.101692338866018,-0.15753601809128667,0.1421045004761018,0.160571724497024,-0.7655697241345759,-1.715530563587531,-0.6110774451901401,2
0.5762095000318276,-0.25500647720488817,-0.8167261541731924,-0.12231633060233285,0.045985600873543704,-0.0409432373237505,-0.05155266581013959,0.05482154512823353,0.38336225057364737,-0.5519292860261622,0.853259924136259,1.3927084868066468,1
0.7190717540407092,-3.2100219245098964,-0.5832312841455503,-1.4547972412126697,1.6552605540170313,-3.7595961881646978,1.0468202578308392,-1.0923258680151777,-0.263791182315592,0.8962552757783836,0.006675367518923223,1.2521689803433105,3
-1.3392029426057737,-0.6380640351888708,1.4364993415935552,-0.21910021585496534,-0.0026690326213820456,-0.06710715958341218,0.01589128564149947,0.4662983346253267,0.2242261605189164,-0.7534350889683848,-1.6303558978302992,-0.6280959010509346,2
1.5974100564656868,-0.2440619755482032,-0.09678363825462889,0.6218258660309139,-0.2523682837651519,0.09873834764315298,2.164462881886572,0.27926343030846623,0.7546797940346863,-0.18983885858536814,0.40609292891079096,0.3633663984521331,3
0.5338799432884551,-0.2002839689214623,-0.8517503846773388,0.031010805309620117,1.5721804722945636,2.488517246940961,0.22785799020379363,0.6782712261844355,-0.9958171965673545,-1.0678727155375676,0.40609292891079096,0.7031865332209031,3
-1.3392029426057737,1.2991127580444124,1.522114127270357,-0.01149981379921206,-0.0026690326213820456,-0.23590665803284233,-0.38877242306833487,-0.03246141021963473,0.1711807971673394,1.4864236999559792,-1.432905536302171,-1.5306230441201722,2
-1.4132796669066754,-1.5355131710370589,1.3547761370838804,-0.1984639929866002,0.04047752915713702,-0.22535668937975295,-0.12863146746915566,-0.3441862507477356,0.012044707112608393,-0.7351002752501256,-1.6303558978302992,-0.5836283228340197,2
0.48096799735923984,-0.1127279556679805,-0.602689189981187,-0.3507593177551349,0.06021478614092765,-0.2278886818564944,-0.08045721643227062,0.11716651323385371,0.3409259598923858,-1.176907284074656,0.7287242385972755,0.8371382503187703,7
0.5920830838105928,0.18277358906252034,-0.6883039756579892,0.1717498452718704,-0.0572907438090817,0.05400648055405398,-0.013013264980631562,0.4912363218675748,0.5212801952877476,-0.5712384135168895,0.8255136315032209,1.1665277185922147,1
-1.4714828074288124,-0.9554545832327421,1.424824598092173,-0.09012382292768323,-0.028373367297946595,-0.4312920774880578,-0.09009206663964762,0.31667041117183836,0.07569914313450078,-0.7893961245703816,-1.699398998103207,-0.6006467786948142,2
-2.72549592595122,-2.947353884749451,1.1913297280645307,-0.5389616703146249,-2.4500888986114204,0.4127054147590931,-2.1423151608109503,0.4912363218675748,0.4682348319361706,-0.8774386600097527,-1.8039315424416282,0.2502760143449171,8
1.613283640244452,-0.5176745169653336,-0.0539762454162277,-0.19330493726950893,-1.4659800852800922,-2.2036868112070747,2.800362995573455,1.0772790220604045,-0.051609728909284,-0.18045001677795028,-0.11850558063943263,0.4358320814722909,3
-1.392114888534989,0.6862206652700402,1.6271868187827965,-0.07217030903220556,-0.008636110314155954,-0.08018912071324302,-0.07082236622489362,-0.05739939746188281,0.18178986983765477,1.3579914299488482,-1.6348727361659101,-1.3313424158147384,2
-0.3021288023931499,0.47827513379302117,-0.42756803746045546,-0.02181792523339463,1.7672580122506338,1.401870475672754,-1.554589298160953,-0.0199924165985107,0.1711807971673394,0.5486024069659773,0.7164642488291892,-0.16475471567962277,3
0.27461140823529906,-0.12367245732466596,-0.7661355990005366,-0.2011467019594877,0.1607370949653497,0.1966420567438225,-0.53329517617899,0.32913940479296233,0.18178986983765477,-0.5513092681709554,0.7448558040815997,1.1357847015533602,1
0.6979069756690235,-0.15650596229472138,-0.7272197873292628,-0.4797357106824171,0.4792872425642032,0.21478800282713625,0.10260493750789254,-0.14468235280975109,0.6379799946612169,-0.5867388598970604,0.9261746001254042,1.2280137526699246,1
-1.402697277720832,0.6424426586432993,1.6388615622841785,-0.15327066490488056,0.0028390390950246472,0.006742620988213524,-0.24424966995767974,-0.08233738470413086,0.31970781455175495,1.4997097968532687,-1.5619580601767649,-1.3176178546366784,2
1.8990081482622152,-1.0101770915161685,-0.48983333613449326,-0.19082859052530513,1.1563210577058587,0.5393050385961657,2.1451931814718184,-1.491333663891147,2.239949967878842,0.6593198811100558,1.1920227993070678,2.2848049633805587,3
-1.3392029426057737,1.1130562298807636,1.6077289129471595,-0.1262372129473222,0.043231565015340354,-0.0409432373237505,-0.10936176705440163,0.19198047496059795,0.21361708784860098,1.4919152866735255,-1.570346474228613,-1.3966713270223048,2
1.0682905971735317,-0.4957855136519631,-1.0774620923707263,4.438288923306363,-2.4096963726911045,-2.8392169228691797,0.709600500572644,-2.775640006866923,-1.1337351412814547,0.7579027200879431,1.0468387099481498,-1.5443476052982323,3
0.962466705315101,2.360729418742878,-0.497616498468748,-0.8873011123326285,3.0809331166136293,1.470656271290897,1.3744051648816575,3.047380014198002,-0.316836545667169,-0.18877597083358494,0.43835605987943943,0.4391259761550251,3
2.020705623899411,1.6712258143717096,-0.7661355990005366,-1.7668169309823507,0.8923926212947048,0.8401901445822751,2.540222039974276,0.7780231751534277,-0.4547544903812692,-0.9886875780297227,0.8900398934405178,-0.4463827110534178,3
0.14762273800518175,-1.404179151156836,-1.108594741707745,-1.2059243934201864,0.39896119669993896,0.8241541922295791,-0.35023302223882685,-0.5686281359279683,-2.0355063182582636,-1.0573324119990513,0.29317197052052135,0.5659409214403013,3
-1.2069230777827349,-0.06894994904123959,1.4676319909305742,-0.13407897763730098,0.06021478614092765,-0.04600722227723341,-0.11899661726177865,0.05482154512823353,0.107526361145447,-0.7312915941395692,-1.4490371017864951,-0.9849344916804993,2
0.9942138728726305,0.29221860562937235,-0.3419532517836532,0.6901317637252026,0.1607370949653497,1.560120005469095,-0.20571026912817175,-0.8678839828349453,0.8925977387487866,0.25303103799094556,0.9139146103573179,0.1437734196031702,3
0.5497535270672204,-0.33161798880168497,-1.096919998206363,-0.8730621185534566,1.830600836989311,0.2941237670983684,0.44945954497346485,0.6034572644576912,-2.247687771664572,0.3891692441985044,0.22864570858322444,0.43198920434243404,3
0.6185390567752,0.12805108077909422,-0.8050514106718103,0.4759277703515725,-0.2923018037091004,0.24643790878640442,-0.07082236622489362,-0.0199924165985107,0.4364076139252244,-0.5778814619655342,0.9907008620627011,1.1253540350580342,1
-1.0693520183667744,1.091167226567393,1.4637404097634468,-0.10952187242394647,-0.1031913414458041,-0.10930703419576973,0.1893185893742856,0.01741456426486141,-0.06221880157959941,1.3634830166663945,-1.4851718084713812,-1.4411389052392196,8
-1.3550765263845381,-0.4301185037118518,1.522114127270357,-0.08372659383849004,-0.014144182030562646,-0.13589295520155498,-0.11899661726177865,0.204449468581722,0.3090987418814396,-0.7268628951738061,-1.578089625661089,-0.8098090910484513,2
0.041798846146751105,-1.0101770915161685,-0.4781585926331112,-0.16235060296696122,-0.4703961225395833,0.2122560103503948,-0.5621997268011211,-1.104794861636302,-0.8578992518532543,-0.3033021260882197,0.3209182631535595,-0.1685975928094796,3
1.0259610404301591,-0.2331174738915177,-0.5949060276469322,1.7941696871827377,0.6252511430489803,0.8190902072760963,1.4129445657111657,0.9401200922280402,-1.0170353419079852,-1.1126911490710907,0.13572789139351704,0.46986899319388,3
0.2534466298636133,-0.4082295003984813,-0.738894530830645,-0.03997780135755595,-0.06601185736005895,-0.1700748536375646,-0.5911042774232521,-0.03246141021963473,0.3409259598923858,-0.5668097145511264,0.7771189350502482,1.2005646303138042,1
0.5815006946247491,-0.1455614606380364,-0.6416050016524607,-0.04637503044674914,-0.1261416402641653,-0.15699289250773374,0.054430686471007496,0.01741456426486141,0.06509007046418541,-1.2660127072658103,0.7080758347773409,0.6274269555180108,1
-0.6301828671542856,0.19371809071920557,-0.5404238913071491,-0.11468092814103775,-0.4703961225395833,0.473473234200888,-2.2386636628847203,-0.14468235280975109,0.3409259598923858,-0.8790329916374275,0.8255136315032209,0.2711373473355687,3
0.05767242992551542,-0.2002839689214623,-0.13180786875877518,0.33931597496299526,-1.092808226493539,-0.011825323841223794,-0.8897846338519393,-1.0549188871518058,0.8289433027268941,0.459496983774823,0.704204259061103,-0.42222748338003185,3
0.38043530009373067,-0.13461695898135095,-0.5793397029784227,-0.179065943490337,0.020281266196979154,-0.27810653264519986,-0.22497996954292573,0.34160839841408636,0.1287445064860778,-1.1326202944170247,0.6074148661551576,0.7377724273896149,1
1.1794056836248847,0.28127410397268715,-0.5131828231372575,-1.6739539280747076,1.7443077134322726,-0.24139264173244884,1.0853596586603473,-0.7556630402448288,-0.09404601959054558,0.5143242769709706,0.7771189350502482,-0.5764915510214282,3
0.46509441358047554,-0.13461695898135095,-0.571556540644168,-1.5616928756708013,-0.28082665429991976,-0.8794547458712949,-0.4080421234830889,-1.541209638375643,0.5531074132986938,-0.15936940970091779,1.0874902549686465,-0.460107272231478,1
0.20582587852731943,-1.666847190917281,-1.1630768780475285,-1.6881929218538794,1.1907465059334004,1.6365017785174623,-0.4080421234830889,-3.149709815500644,-2.8099686231912875,1.5550685339253079,0.4583592010800016,-0.9953651581758249,3
-0.18043132675595397,-1.655902689260596,-0.8167261541731924,0.09684035625970491,-1.3741788900066476,-1.9530195560096708,-0.8416103828150543,-0.7930700211082009,-1.4838345394018628,0.3714544483354519,0.24026043573193834,0.4594383266985544,3
0.5656271108459847,-0.15650596229472138,-0.9295820080198861,-0.061852197598023,0.1088694196358534,0.022356574594785822,-0.09009206663964762,0.12963550685497777,0.1499626518267086,-0.5391746330047643,0.8693914896205832,1.4443128368361529,1
-0.011113099782464213,-0.46295200868190767,0.35853135829927363,1.4097168551450951,-0.7343245589507371,1.0060356518088402,-1.0535770873773485,-0.7556630402448288,2.664312874691458,-0.5618495717094716,0.7609873695659239,0.28486190851362886,3
-0.8418306508711478,1.3538352663278381,1.646644724618433,-0.07217030903220556,4.234415135224463,-1.5546527396690157,0.9504717557570692,2.3740543586573044,0.5637164859690093,-0.9222570935432757,-1.6510043016502343,-0.7823599686923309,9
-1.2704174128977932,-0.1893394672647773,1.3781256240866449,-0.2409746120954324,0.10611538377765004,-0.36799226556952147,-0.16717086829866368,-0.2444343017787434,0.0014356344422930141,1.448248314871101,-1.4529086775027327,-1.0228142805319453,2
0.25873782445653476,0.23749609734594623,-0.7933766671704282,1.728340136232653,-2.556119279152249,-1.3702392876130132,-0.08045721643227062,1.6259147413898623,-0.8260720338423082,-0.9272172363849304,0.3209182631535595,0.7926706721018556,3
0.020634067775065355,-0.5067300153086481,-0.6688460698223524,-1.092425167644178,1.038356521779482,1.3018567728414667,-0.3405981720314498,0.6283952516999393,-1.4307891760502858,0.42079015481405313,0.055070063971895906,0.4083829591161705,3
0.33281454875743677,0.08427307415235331,-0.6999787191593713,-0.2952478782392327,0.029002379747956414,-0.34393833704047766,-0.3405981720314498,0.5411122963520709,-0.08343694692023017,-1.1110082434641007,0.6480664111756543,0.7855339002892642,1
-1.1540111318535191,0.6533871602999846,1.4014751110894088,0.1639080805818916,-0.36161170614055127,-0.014357316317965248,0.006256435434122452,0.7780231751534277,0.0226537797829238,-0.757863787934148,-1.4651686672708195,-1.0123836140366196,2
0.28519379742114287,0.21560709403257577,-0.6416050016524607,-0.927335384697257,0.08591912081749219,0.5287550699430764,-0.22497996954292573,-0.044930403840758755,-1.1761714319627163,-0.35254925858750585,0.41770765605950483,-0.31572488863828474,3
1.5603716943152357,0.21560709403257577,-1.1008115793734905,-1.793850382939909,1.276580623514071,-2.029401329058038,2.1162886308496875,-0.4190002124744798,-1.5050526847424934,-0.9941791647472691,0.8371283586519348,-0.03080299858175531,3
-1.402697277720832,1.9886163624155808,1.4909814779333386,0.7650412527373681,0.10336134791944672,-0.10930703419576973,-0.20571026912817175,0.8902441177435441,-0.1683095282827534,1.475883396417463,-1.578089625661089,-1.492743255268726,2
-1.2069230777827349,0.13899558243577945,1.4403909227606824,-0.0992037609897639,0.03726448732256645,-0.08018912071324302,-0.07082236622489362,0.24185644944509407,0.1393535791563932,-0.7362517369812239,-1.469040242987057,-0.9953651581758249,2
0.5338799432884551,-0.17839496560809184,-0.8089429918389378,-2.5020855517822005,2.3928831580391603,0.11730629247259028,-0.07082236622489362,-0.4813451805801,-1.091298850600193,0.39306649928837595,0.5306286144497744,-0.024215209216286563,3
0.470385608173397,-0.35350699211505543,-0.4937249173016207,0.7056089308764765,-1.6151570275994398,0.655354693780149,-0.05155266581013959,-0.2693722890209914,0.0226537797829238,1.1183102419217472,0.5951548763870713,0.31231103086974926,3
0.6132478621822786,0.04049506752561266,-0.4587006867974743,-0.0992037609897639,-0.30698999495285156,0.13038825360242115,0.2567625408259247,0.10469751961272968,-0.1258732376014918,-1.142540580100334,0.5306286144497744,0.14047952492043564,7
1.4228006348992754,0.24844059900263143,-0.43535119979471,-0.8743002919255586,1.12464964533652,1.0879034085568138,1.5285627681996896,0.11716651323385371,0.5849346313096401,0.38474054523274126,0.7726020967146379,0.3842277314427843,3
-0.0957722132692091,0.02955056586892719,-0.5676649594770408,-0.2011467019594877,0.6284641848835509,2.3146537635380477,-0.7067224799117763,0.6782712261844355,-1.091298850600193,-0.8635325452572565,0.2125141430989002,0.15091019141576123,3
-1.3444941371986951,-0.8678985699792603,1.4092582734236638,-0.24241914769621797,0.008806116787798555,-0.07765712823650157,-0.032282965395385575,0.204449468581722,0.18178986983765477,-0.7528150711131781,-1.6264843221140617,-0.6215081116854656,2
0.9889226782797091,1.7259483226551355,-0.6571713263209703,-0.5234845031633512,0.8350168742488018,-1.1592399145512255,0.642156549121005,1.488755811557498,0.266662451200178,-0.49763343670590615,0.9139146103573179,0.3705031702647242,1
0.4862591919521613,-0.2878399821749441,-0.7972682483375555,-0.18298682583532636,0.04873963673174705,0.04894249560057107,-0.15753601809128667,0.06729053874935757,-0.030391583568653183,-0.553523617653837,0.7525989555140756,1.053437334484999,1
0.126457959633496,0.34694111391279847,-0.5015080796358755,-0.13655532438150478,-0.4561669372721993,-0.20974273577318067,-0.45621637451997393,1.1146860029237766,-0.38049098168906137,-1.1210171031267253,0.3576982324578183,0.4254014149769649,3
1.9201729266339018,0.6533871602999846,-0.1551573557615394,1.0382648435145225,-0.7398326306671439,-1.5998066055042381,2.4149689872783746,-0.2943102762632395,0.9456431021003635,-0.366455373340002,0.7971220762508103,-0.5150055169437188,3
0.23757304608484806,0.11710657912240899,-0.40811013162481846,1.9037480306137566,-0.8146506048150014,-1.1381399772450467,-0.5718345770084982,1.1645619774082727,1.858023351747488,-0.13279721590633894,0.7125926731129513,1.9998830733240294,1
1.3381415214125305,-1.4698461610969473,0.18730178694566915,0.3547931421142691,-0.8720263518609044,-0.1595248849844752,1.6441809706882138,-0.8928219700771933,1.8474142790771726,0.32778747653302726,0.4583592010800016,0.6620128496867226,3
-1.1381375480747544,-0.17839496560809184,1.3898003675880266,0.13687462862433328,-0.39282411253352245,-0.2806385251219414,0.04479583626363049,0.06729053874935757,0.04387192512355459,-0.7434262293057602,-1.469040242987057,-0.9333301416509929,2
-1.392114888534989,1.1349452331941339,1.5804878447772677,0.015533638158346262,0.020281266196979154,-0.03841124484700905,-0.02264811518800857,0.5411122963520709,0.0226537797829238,1.3563085243418582,-1.6626190287989477,-1.3005993987758835,2
0.39630888387249497,-0.802231560039149,-1.0268715371980703,-1.7783732157886352,0.6197430713325738,-0.8583548085651161,-0.20571026912817175,-0.456407193337852,-1.1019079232705085,-1.1154369424298638,0.6112864418713956,0.7064804279036376,3
-1.1963406885968917,1.6602813127150242,1.506547802601848,-0.1289199219202097,0.04873963673174705,-0.05951118215318782,-0.07082236622489362,0.10469751961272968,0.05448099779387,1.3441738891756672,-1.4574255158383436,-1.623401077683859,2
-0.36033194291528664,-0.5614525235920744,-0.48594175496736597,2.4338925961020568,-1.4141124099505962,-0.32579239095716395,-1.37152714422079,-0.2194963145364953,0.2242261605189164,-0.995862070354259,0.5751517351865092,0.3979522926208445,3
-1.0428960454021667,1.6274478077449686,1.4598488285963196,-0.1481116091877893,0.13778679614698852,-0.06963915206015364,-0.07082236622489362,0.19198047496059795,0.19239894250797018,1.3452367769274505,-1.323856153628139,-1.5717967276543527,2
0.7084893648548664,-1.1196221080830202,-0.9801725631925419,-0.7143695646957285,0.0345104514643631,-0.9613225026192685,0.21822313999641668,-1.1920778169841701,-0.6138905804360002,0.6787175825800983,0.7932505005345725,0.7410663220723491,3
0.655577418925651,-0.13461695898135095,-0.7544608554991545,-0.037295092384668486,-0.21518879967940677,0.12279227617219679,0.054430686471007496,0.1795114813394739,0.7546797940346863,-0.41517106196339654,0.8855230551049075,1.5815584486167549,1
-0.11164579704797341,-0.25500647720488817,-0.2174226544355774,-0.37015736725139814,-0.8890095729864917,-0.96385449509601,-1.0343073869625945,-0.19455832729424719,0.4576257592658552,0.5087441162741091,0.5106254732492123,0.12675496374237544,3
-1.1116815751101468,-0.4082295003984813,1.3898003675880266,-0.1481116091877893,0.11759053318683065,0.011806605941696434,-0.05155266581013959,0.01741456426486141,0.2242261605189164,-0.7357202931053324,-1.4006424053335225,-0.8509827745826318,2
-1.392114888534989,-1.2837896329332987,1.3975835299222816,-0.14687343581568735,0.10060731206124335,-0.05149320597683989,-0.1382663176765327,0.1795114813394739,0.2560533785298626,-0.7257114334427077,-1.6064811809134996,-0.49414418395306714,2
0.5497535270672204,-0.02517194241449869,-0.5209659854715123,-0.16874783205615443,0.2121457643184788,0.08059240155983922,-0.02264811518800857,0.10469751961272968,0.3939713232439628,-1.2654812633899188,0.7203358245454272,0.6142513767870733,1
-0.05344265652583666,0.24844059900263143,-1.0385462806994525,-0.5738368869621621,2.6021898832626142,1.494288201073817,-0.4465815243125969,1.999984550023583,-2.099160754280156,0.349930971361843,0.055070063971895906,0.7306356555770235,3
-1.1910494940039702,-2.7612973565858026,1.3392098124153708,-0.7079723356065355,-1.1446759018230355,-0.7659370831640532,0.5650777474619889,-2.5511981216866904,-0.5396270717437923,-0.8064909025782273,-1.7677968357567417,-0.8888625634340781,9
-0.12751938082673867,0.06238407083898311,-0.1434826122601572,0.2027041795744181,-1.6091899499066662,-1.8027880023896778,-0.9764982857183324,0.553581289973195,0.6167618493205861,-0.9902819096573975,0.41770765605950483,0.32219271491795254,3
1.602701251058608,0.4563861304796507,-1.0268715371980703,-0.5080073360120773,0.6826268900948834,0.8823900191946327,2.1933674325087034,-0.4314692060956039,-2.5447418064334024,-0.8785015477615359,0.3899613634264667,-0.8235336522265115,3
0.36456171631496537,1.1349452331941339,-0.8750998716801031,-1.6326814823379772,1.1274036811947235,-0.6815373339393379,-0.4080421234830889,0.6782712261844355,-0.8154629611719928,-0.3930275671345808,0.7971220762508103,-0.06209499806773254,1
0.5021327757309256,-0.1127279556679805,-0.738894530830645,-0.15203249153277865,0.0230353020551825,-0.11985700284885911,-0.1479011678839097,0.24185644944509407,0.3409259598923858,-0.5529921737779454,0.7932505005345725,1.1698216132749493,1
-0.49261180773832536,-0.6599530385022413,-0.7894850860033008,-1.3992858016967675,0.13503276028878514,-0.2464566266859317,-1.0439422371699716,-0.16962034005199914,-2.682659751147503,0.34656516014786304,-0.10237401515510841,-0.2059283992138033,3
1.5974100564656868,2.393562923712934,-0.5365323101400218,1.2111963911514223,0.8405249459652083,1.6892516217829092,1.6345461204808367,1.7131976967377303,0.9668612474409942,0.4446165552498588,1.127496537369771,0.19537776963267636,3
0.8989723702000418,1.2772237547310419,0.06666277076472064,1.8032496252448182,-2.553365243294046,-0.8954906982239909,0.9408369055496922,1.3391278881040094,2.664312874691458,-1.063975460447696,0.9384345898934905,0.5214733432233861,3
0.2799026028282205,-0.4957855136519631,-0.906232521017122,-3.7982467101442148,1.2563843605539133,-0.7845050279934904,-0.6296436782527601,-2.5511981216866904,-1.0276444145783006,0.7158300799131934,0.8939114691567558,-1.290168732280558,3
-1.1434287426676764,0.8941661967470592,1.4637404097634468,-0.46281400793035765,0.008806116787798555,0.5367730461194243,-0.04191781560276259,-0.13221335918862703,0.04387192512355459,1.481995000990216,-1.432905536302171,-1.3692222046661844,2
-0.3920791104728162,-0.9663990848894276,-0.45091752446321953,0.9802770572544165,-1.04966166471502,-1.0537402280203316,-1.3233528931839047,-0.9801049254250616,-0.8578992518532543,1.4022784196064795,0.2809119807524351,-0.15816692631415402,3
-1.4926475858004988,0.5658311470465027,1.6116204941142867,-0.1972258196144983,0.22958799142043332,-0.11985700284885911,-0.17680571850604068,-0.007523422977386649,0.2348352331892318,1.347451126410332,-1.6548758773664722,-1.279738065785232,2
-1.1063903805172253,-0.4082295003984813,1.413149854590791,0.19238606814023554,-0.36161170614055127,-0.2861245088215479,0.3049367918628097,0.4164223601408306,0.0863082158048162,-0.7766414715489838,-1.574218049944851,-0.7483230569707419,2
-1.085225602145539,1.5508362961481723,1.5104393837689754,-0.17535142337403126,0.18093335792550755,-0.014357316317965248,-0.0611875160175166,0.22938745582397005,0.24544430585954718,1.3463882386585488,-1.3606361229323982,-1.5306230441201722,2
-0.3232935807648356,-3.0896324062863587,-1.139727391044764,-1.3786495788284023,-0.0802410426274429,0.6080908342143085,-1.2751786421470197,-2.4015701982332014,-1.3671347400283933,0.8016582658696829,0.5028823218167363,0.6653067443694571,3
0.5497535270672204,-0.03611644407118416,-0.6493881639867155,-0.1739068877732457,0.09464023436846944,0.04894249560057107,-0.04191781560276259,0.12963550685497777,0.2030080151782856,-1.0999364960496927,0.7487273797978377,0.7443602167550837,4
0.4016000784654164,-0.5505080219353891,-0.571556540644168,-0.15719154724986992,0.21535880615304936,-0.05402519845358134,-0.19607541892079472,-0.11974436556750298,0.1711807971673394,-1.111539687339992,0.6112864418713956,0.7514969885676751,1
1.3275591322266878,1.18966774147756,-0.5949060276469322,0.5805534202941837,0.09785327620304002,1.8610051114552044,1.5189279179923125,-0.007523422977386649,-0.9745990512267236,-0.606136561367103,0.5751517351865092,-1.0052468422240282,3
0.7508189215982388,1.1458897348508192,-0.38086906345492694,-1.0949015143883818,0.7372486012825831,0.00927461346495498,0.31457164207018673,1.4139418498307537,0.9138158840894174,-1.0816902563107487,0.7609873695659239,0.6894619720428429,4
-0.24921685646393407,-0.26595097886157365,-0.4158932939590732,-0.3790309430847952,-0.41898745318645425,-1.652556448769685,-1.1210210388289876,0.10469751961272968,-0.40170912702969214,0.4052897084338822,0.345438242689732,0.14761629673302706,3
-1.085225602145539,0.43449712716628025,0.7321231503435012,-1.2420377834398253,-1.6495824758269817,-0.9929724085785367,-2.074871209359311,1.6882597094954823,1.6882781890224414,-0.17929855504685188,-0.11850558063943263,0.1338917355549669,3
2.1371119049436857,-0.33161798880168497,-0.13959103109302992,-0.2527372591304005,1.331202334701771,2.0217866337282864,1.3936748652964115,-0.6933180721392087,0.8713795934081557,0.5237131187783884,0.7726020967146379,0.8234136891407102,3
-0.03756907274707234,-2.2797392836916535,-0.05008466424910041,-0.31196321876260846,2.783038237951301,0.4789592179004945,0.2856670914480557,-0.8803529764560692,0.012044707112608393,-0.9853217668157428,-0.368222214336772,0.41167685379890473,9
0.27461140823529906,0.226551595689261,-0.2641216284411057,1.7683744085972812,-1.4829633064056795,0.7055725445688544,-0.6970876297043992,-0.16962034005199914,1.6352328256708646,-0.36202667437423885,0.9945724377789391,0.6894619720428429,3
0.45451202439463173,-0.8350650650092049,-1.2759327318942222,2.1526208784062404,-0.44193775200481544,0.4312733595885304,-0.4369466741052199,-1.5910856128601394,-0.8260720338423082,0.30785833118709316,1.1036218204529706,0.7514969885676751,7
0.15291393259810412,-0.5833415269054449,-1.0035220501953064,-1.7474188814860874,0.8318038324142312,-1.4415570757078975,-0.542930026386367,-0.3441862507477356,-1.5793161934347013,0.4041382467027838,0.494493907764888,0.3084681537398924,3
-1.392114888534989,-1.2947341345899839,1.3781256240866449,-0.14315891569938163,0.120344569045034,-0.05149320597683989,-0.11899661726177865,0.204449468581722,0.2030080151782856,-0.7246485456909245,-1.614224332345975,-0.48041962277500694,2
0.5867918892176704,-0.39728499874179635,-0.7077618814936261,-0.14047620672649416,0.008806116787798555,-0.0409432373237505,0.03516098605625347,0.01741456426486141,0.29848966921112424,-1.2560038476031858,0.7403389657459893,1.107786596750117,1
-0.6301828671542856,-1.1086776064263353,0.0861206766003576,1.9772129840251365,-0.7141282959905791,2.691498643826401,-2.2097591122625895,-1.2045468106052943,2.239949967878842,0.10794685987254522,0.7887336621989621,0.7031865332209031,3
0.8248956458991408,-0.7256200484423526,0.5375440919871326,1.1763211745038853,-3.0036501061102925,-3.0105484137953513,0.5554428972546119,-0.2693722890209914,3.3114663075806976,0.4816404786036387,0.6319348456913302,0.8612934779921565,3
-1.2280878561544213,0.19371809071920557,1.4909814779333386,-0.1675096586840525,0.1662451666817564,-0.06457516710667073,-0.08045721643227062,0.27926343030846623,0.2348352331892318,-0.7357202931053324,-1.4813002327551437,-1.009089719353885,2
-1.2175054669685779,1.485169286208061,1.553246776607376,-0.18814588155241763,0.11759053318683065,-0.03292526114740257,-0.08045721643227062,0.02988355788598546,0.160571724497024,1.3486025881414303,-1.4774286570389057,-1.5888151835151474,2
1.6397396132090591,0.36883011722616893,-0.6921955568251166,-2.029928772554006,2.2951148850729415,0.18609208809073313,2.019940128775917,-0.08233738470413086,-0.688154089128208,-0.2944447281566934,0.6596811383243683,-0.18561604867027437,3
-0.04286026733999378,-0.7693980550690935,-0.7077618814936261,1.5168188518319103,-0.8233717183659787,1.336038671277476,-1.1017513384142337,-2.6634190642768067,-0.8897264698642006,1.0540941069181817,0.7448558040815997,-1.2522889434291116,3
0.4756768027663184,-0.6708975401589268,-0.8712082905129755,-0.08764747618347943,0.3530605990632166,2.3146537635380477,0.07370038688576151,-2.526260134444442,-2.099160754280156,1.4072385624481343,0.4622307767962396,-1.3554976434881243,3
-0.7201331752339519,-2.115571758841375,-1.104703160540618,-3.3700450856256383,0.7891162766120794,-0.781973035516749,-2.1134106101888195,-2.9502059175626596,-2.3749966437083567,1.4571057128026272,0.4744907665643258,-0.4463827110534178,3
1.6767779753595102,0.23749609734594623,-0.7544608554991545,-0.7310849052191044,-0.8403549394915659,-1.4204571384017186,2.6269356918406688,1.1022170093026527,-1.780888574170694,0.5015696239495728,0.11572475019295486,0.16134085791108724,3
0.470385608173397,-0.25500647720488817,-0.8050514106718103,-0.16874783205615443,0.03726448732256645,-1.5470567622387914,0.22785799020379363,0.8029611623956758,-1.1125169959408239,0.2518795762598472,0.2970435462367593,0.658718955003988,3
0.13704034881933885,-0.8678985699792603,-0.2991458589452522,-0.3377584973480649,0.19516254319289153,-0.46294198344732596,-0.7741664313634152,-1.0798568743940538,0.8819886660784712,0.2430221783283209,0.7403389657459893,0.3842277314427843,3
0.5021327757309256,-0.03611644407118416,-0.5443154724742765,-0.11344275476893585,0.12631164673780793,-0.06204317462992927,-0.08045721643227062,0.11716651323385371,0.29848966921112424,-1.1021508455325744,0.6803295421443029,0.5588041496277099,1
-1.4450268344642043,-1.1086776064263353,1.424824598092173,0.18330613007815486,-0.16928820204268435,0.0278425582943923,-0.24424966995767974,0.004945570643737382,0.2030080151782856,-0.7810701705147469,-1.5980927668616507,-0.6248020063682002,2
0.9730490945009439,1.4523357812380053,-0.6065807711483144,-1.8159311414090595,2.7885463096677072,-0.09116108811245598,1.4033097155037886,1.862825620191219,-1.8233248648519556,-0.9986078637130322,0.0750732051724581,-0.15432404918429715,3
1.4122182457134327,0.5439421437331323,-0.6571713263209703,-1.626284253248784,2.134462793344413,0.24390591630966293,1.8176082744209998,-0.0199924165985107,-0.6032815077656848,-0.30055633272944654,0.6880726935767787,-0.20263450453106893,3
0.5391711378813766,-0.26595097886157365,-0.602689189981187,-0.21910021585496534,0.07444397140831159,-0.19623877589722624,-0.0033784147732545517,0.06729053874935757,0.24544430585954718,-1.2981650617572507,0.6880726935767787,0.7992584614673244,1
-0.0957722132692091,-1.3713456461867801,-0.602689189981187,0.3186797520946301,-1.666565696952569,-1.705306292035132,-0.31169362140931883,0.24185644944509407,-1.0594716325892468,0.3421364611820999,-0.029459339165963196,0.5868022544309529,3
2.3910892454039194,-0.2440619755482032,-0.43145961862758275,-0.05153408616384043,-1.9938369581023996,-1.1773858606345393,3.5518813117488617,0.5161743091098229,0.266662451200178,-0.09409038694556911,0.47061919084808784,0.7240478662115547,3
-1.3709501101633028,0.8613326917770036,1.603837331780032,0.013057291414142462,-0.0228652955815399,-0.11985700284885911,-0.10936176705440163,0.10469751961272968,0.1711807971673394,1.3530312871071934,-1.5980927668616507,-1.3346363104974726,2
-1.3444941371986951,-1.1415111113963907,1.3586677182510076,-0.18422499920742827,0.06021478614092765,-0.043475229800491955,-0.10936176705440163,0.0797595323704816,0.107526361145447,-0.7273943390496976,-1.574218049944851,-0.5836283228340197,2
-1.3392029426057737,1.5289472928348018,1.5921625882786503,-0.04369232147386168,0.05470671442452096,-0.02237529249431318,-0.12863146746915566,0.2543254430662181,0.1393535791563932,1.481995000990216,-1.5580864844605269,-1.5273291494374377,2
0.200534683934398,0.2593851006593167,-0.9451483326883956,2.2300067141626094,-2.0626878545574834,-0.05402519845358134,-0.2635193703724338,1.3640658753462576,-1.5156617574128088,1.310338629077237,0.3009151219529973,0.6312698326478676,3
0.40689127305833783,-0.2331174738915177,-0.36530273878641745,-0.313407754363394,0.03175641560615976,-0.1991927671200913,-0.1382663176765327,0.16704248771834984,0.47884390460648596,-1.3009108551160238,0.5712801594702712,0.5489224655795065,1
0.6185390567752,-2.0389602472445785,0.16784388111003237,0.6373030331821878,-1.551814202860763,-1.1748538681577978,0.16041403875215457,-2.251942274779713,1.9959412964615881,-0.8851445962101806,0.6558095626081303,0.3842277314427843,3
-1.49793878039342,0.6862206652700402,1.6232952376156693,-0.1972258196144983,0.06021478614092765,-0.05402519845358134,-0.09972691684702464,0.2543254430662181,0.1287445064860778,1.3540941748589765,-1.7110137252519204,-1.2352704875683171,2
0.43334724602294594,0.01860606421224221,-0.5987976088140597,0.4670541945181755,-0.09447022789482686,0.12279227617219679,-0.11899661726177865,0.35407739203521044,-0.08343694692023017,-1.3108311407993334,0.5996717147226817,0.5417856937669154,1
0.30635857579282866,-0.46295200868190767,-0.36141115761929,2.3358705374773225,-2.647920474425694,0.3468736103638153,-0.6585482288748912,-1.7531825299347517,0.9774703201113096,0.7236245900929364,1.05135554828376,-0.3673292386677911,3
-0.6407652563401289,-1.6011801809771695,-1.0190883748638158,-1.4715125817360455,0.3815189695979844,0.2675378460925832,-2.5277091691060303,-2.6758880578979305,0.7016344306831094,0.7175129855201833,1.3294637372335099,1.859343566860693,3
0.5709183054389062,-0.2440619755482032,-0.7622440178334092,-0.1959876462423964,-0.005423068479585392,-0.06710715958341218,0.006256435434122452,0.01741456426486141,0.1287445064860778,-1.2101225263178796,0.7448558040815997,0.960659300921312,7
0.5603359162530632,-0.09083895235461004,-0.7233282061621356,-0.12499903957522032,0.2612594037897718,-0.39162419535244175,-0.09009206663964762,-0.15715134643087508,0.19239894250797018,-0.5352773779148928,0.853259924136259,0.7476541114378182,1
-1.5614331155084789,0.43449712716628025,1.6699942116211974,-0.017897042888405244,-0.08299507848564625,-0.13293896397868996,-0.11899661726177865,0.22938745582397005,0.19239894250797018,1.3502854937484203,-1.759408421704893,-1.1562170151826903,2
0.7190717540407092,-1.2947341345899839,-0.09289205708750144,-0.5441207260317162,0.46505805729681926,-0.8081369577764107,0.5747125976693659,-0.4190002124744798,1.1790427008473023,0.3266360148019289,0.40609292891079096,0.8404321450015049,3
0.32223215957159296,0.41260812385290985,-0.43145961862758275,2.663367394398277,-1.6780408463617498,0.3207096881041537,-0.4369466741052199,-0.2194963145364953,0.1711807971673394,1.252765542522316,0.7364673900297515,-0.24710208274798384,3
0.8196044513062194,0.8175546851502626,-1.2798243130613496,-1.7604197018931573,1.890730619893417,-0.5313057803193453,0.32420649227756376,-1.3417057404376584,-2.459869225070879,0.05427102840749598,0.7403389657459893,-1.6574379894054483,3
-1.2122142723756564,-0.13461695898135095,1.4403909227606824,0.029772631937518217,-0.020111259723336553,-0.3283243834339054,-0.0611875160175166,0.45382934100420275,0.160571724497024,-0.734568831374234,-1.4935602225232298,-0.8784318969387522,2
-1.1804671048181268,1.6602813127150242,1.5337888707717393,-0.14955614478857485,0.06021478614092765,-0.09369308058919742,-0.05155266581013959,0.10469751961272968,0.1393535791563932,1.3447053330515588,-1.4574255158383436,-1.6195582005540021,2
0.2904849920140643,-0.2440619755482032,-0.4158932939590732,-0.28740611354925394,-0.014144182030562646,-0.13293896397868996,-0.2731542205798108,0.42889135376195464,0.4151894685845936,-1.2903705515775077,0.5144970489654502,0.7202049890816978,1
0.5391711378813766,0.01860606421224221,-0.7233282061621356,-0.14047620672649416,0.2869637384663363,-0.36250628186991496,-0.11899661726177865,0.02988355788598546,0.2242261605189164,-0.5374917273977744,0.849388348420021,0.7992584614673244,1
0.5391711378813766,-0.21122847057814728,-0.7739187613347913,-0.14687343581568735,0.09188619851026611,-0.08018912071324302,-0.08045721643227062,0.09222852599160565,0.2242261605189164,-0.5607866839576885,0.7971220762508103,1.1220601403753,1
-1.1116815751101468,0.06238407083898311,1.3898003675880266,-0.18422499920742827,0.1088694196358534,0.01433859841843789,0.03516098605625347,0.15457349409722584,0.05448099779387,-0.7362517369812239,-1.4412939503540194,-0.9915222810459681,2
-1.2016318831898132,1.7916153325952469,1.506547802601848,-0.17535142337403126,-0.01689821788876599,-0.03841124484700905,-0.04191781560276259,-0.20702732091537124,-0.009173438228022395,1.3308877922783777,-1.4813002327551437,-1.7776651453252554,2
-1.3709501101633028,0.7299986718967811,1.6116204941142867,-0.106839163451059,-0.06601185736005895,-0.06963915206015364,-0.032282965395385575,-0.0199924165985107,0.11813543381576239,1.3585228738247397,-1.642615887598386,-1.3313424158147384,2
-1.3709501101633028,-1.207178121336502,1.3547761370838804,-0.10952187242394647,0.051493672589950384,-0.07259314328301866,-0.09972691684702464,0.204449468581722,0.1287445064860778,-0.7268628951738061,-1.6026096051972616,-0.5117116222609842,2
-1.2069230777827349,0.24844059900263143,1.4637404097634468,-0.15595337387776803,0.19240850733468814,-0.06457516710667073,-0.07082236622489362,0.32913940479296233,0.21361708784860098,-0.7362517369812239,-1.4735570813226677,-1.0123836140366196,2
0.163496321783947,0.5548866453898175,-0.5209659854715123,0.5805534202941837,-0.9610735112761459,0.27808781474567257,-0.620008828045383,0.34160839841408636,-0.263791182315592,-1.1210171031267253,0.6074148661551576,-0.04452755975981549,3
-0.2333432726851693,-0.9773435865461125,-0.318603764780889,-0.5183254474462599,-1.084087112942562,-0.8583548085651161,-1.2559089417322657,-0.9551669381828134,0.2242261605189164,0.46339423886469455,0.5267570387335365,0.18494710313735074,3
0.544462332474298,-0.2002839689214623,-0.9023409398499945,-0.106839163451059,0.1088694196358534,-0.05149320597683989,-0.10936176705440163,0.10469751961272968,0.1287445064860778,-0.5524607299020537,0.8455167727037831,1.3586715750850573,1
0.7508189215982388,0.11710657912240899,-0.6260386769839512,-0.5480416083767057,0.6454474060091383,-0.46040999097058455,0.6614262495357589,0.06729053874935757,-1.1867805046330318,0.002809546425328311,0.3615698081740562,-0.20263450453106893,3
-1.439735639871283,1.0036112133139115,1.66610263045407,0.07620413339133977,-0.12889567612236863,-0.180624822290654,0.006256435434122452,0.2543254430662181,0.1499626518267086,1.3590543177006313,-1.719402139303769,-1.3483608716755329,2
2.2958477427313313,-1.2181226229931874,-0.38086906345492694,-0.11076004579604837,0.3613227066378266,0.41017342228235165,3.4555328096750917,-0.7806010274870769,-0.051609728909284,-0.19533044530291446,0.38544452509085636,0.3633663984521331,3
-1.5667243101014003,1.9338938541321546,2.1564418575121187,-0.7931999360528835,0.43063260906927747,0.5262230774663349,-0.7452618807412842,0.8528371368801718,1.8474142790771726,1.361268667183513,-1.4612970915545815,-1.479018694090666,2
0.5127151649167694,-0.38634049708511087,-0.7544608554991545,-0.13263444203651542,0.08591912081749219,-0.09116108811245598,-0.0611875160175166,0.10469751961272968,0.06509007046418541,-1.2610525644241557,0.696461107628627,1.0567312291677333,1
1.5762452780940008,1.7259483226551355,0.24567550445257985,0.7186097512835465,-0.7659959713200757,-0.27008855646885194,1.942861327116901,1.8752946138123427,1.9004596424287497,-0.8580409585397102,0.6112864418713956,0.10259973606898964,3
-0.02169548896830709,-0.6052305302188153,-0.9918473066939241,-0.37779276971269327,0.33561837196126204,0.3970914611525208,-0.8030709819855463,-0.36912423798998373,-1.749061356159748,-1.0351889171702358,0.42609607011135314,0.21623910262332796,3
-1.333911748012852,-1.3385121412167247,1.3859087864208994,-0.14955614478857485,-0.011390146172359299,0.37345953136960064,-0.013013264980631562,-0.25690329539986734,0.05448099779387,-0.7832845199976285,-1.6226127463978237,-0.6280959010509346,2
0.5232975541026123,-0.02517194241449869,-0.6260386769839512,-0.14047620672649416,0.020281266196979154,0.01433859841843789,-0.05155266581013959,0.1421045004761018,0.107526361145447,-1.112159705195199,0.7080758347773409,0.6142513767870733,1
0.4227648568371031,-0.32067348714499955,-0.25633846610685096,1.221514502585605,-0.37308685554973187,0.4840232028539774,-0.02264811518800857,-0.9801049254250616,0.797116084715948,-1.090547654242275,0.7403389657459893,-0.04123366507708131,3
0.9095547593858857,-0.058005447384554605,-0.6377134204853334,0.1987832972294287,0.8777044300509536,2.8286482363165626,0.584347447876743,-1.0050429126673097,-0.33805469100779983,-1.2947992505432708,0.7932505005345725,-0.41179681688470604,3
3.184768434342152,0.5877201503598731,-0.5015080796358755,-0.13655532438150478,0.38748604729075836,0.8401901445822751,4.775507288085741,-0.6933180721392087,-0.2850093276562228,0.9588770791542742,0.7287242385972755,-0.8921564581168124,3
0.5709183054389062,-0.3644514937717404,-0.9646062385240326,0.058250619495862126,-0.08299507848564625,-0.7503231295574808,-0.15753601809128667,-0.7431940466237049,-0.1364823102718072,-0.5429833141153207,0.9984440134951771,0.8574506008622996,1
-1.2016318831898132,-0.4957855136519631,1.3898003675880266,-0.1289199219202097,0.11483649732862732,-0.048539214753974866,-0.10936176705440163,0.05482154512823353,0.1711807971673394,-0.7351002752501256,-1.4490371017864951,-0.8136519681783082,2
0.6397038351468868,-0.38634049708511087,-0.559881797142786,-0.1481116091877893,0.20388365674386874,0.41819139845869957,0.12187463792264656,-0.09480637832525492,0.38336225057364737,-1.1149054985539721,0.696461107628627,0.7992584614673244,1
-1.4344444452783616,1.1677787381641895,1.7439342537966172,-0.29008882252214147,0.8148206112886438,0.3232416805808951,-0.10936176705440163,0.004945570643737382,0.4364076139252244,1.3574599860729566,-1.6587474530827102,-1.4378450105564853,2
0.1158755704476531,-0.15650596229472138,-0.36530273878641745,0.46189513880108424,-0.8348468677751593,-0.600091575937488,-0.9668634355109553,-0.5686281359279683,0.9244249567597328,0.2912064230758238,0.9177861860735559,0.3084681537398924,3
0.4016000784654164,1.6274478077449686,-0.36141115761929,-1.6198870241595908,1.8563051716658752,-1.3280394130006556,0.4783640955955959,3.0847869950613744,-0.9215536878751468,-0.08186717780006289,-0.0333309148822007,0.2574127861575085,3
0.5973742784035143,-0.2331174738915177,-0.7739187613347913,-0.08248842046638813,-0.051323666116307794,-0.23590665803284233,0.04479583626363049,0.11716651323385371,0.1287445064860778,-0.5579523166196001,0.7609873695659239,1.0633190185332024,1
1.9307553158197448,-0.6599530385022413,-0.2796879531096152,-0.2630553705645831,0.051493672589950384,0.4127054147590931,2.395699286863621,-0.9801049254250616,1.2957425002207719,-0.9764643688842165,0.8655199139043452,0.5384917990841809,3
-0.10635460245505197,0.8613326917770036,-0.7466776931648997,0.895255819036752,-0.5479681325456441,-0.415256125135362,-1.2655437919396426,0.5161743091098229,-0.3274456183374844,-0.9798301800981964,0.8093820660188966,0.13004885842511002,3
-1.661965812773988,-1.7981812107975037,1.6194036564485412,-0.31712227447969976,0.3787649337397811,-0.06457516710667073,-0.6296436782527601,-0.9925739190461855,0.6379799946612169,-0.7722127725832206,-1.6064811809134996,-0.7000126016239698,2
-1.3497853317916166,1.747837325968506,1.6933436986239618,-0.24241914769621797,0.1088694196358534,-0.07765712823650157,-0.16717086829866368,0.34160839841408636,0.3939713232439628,1.361268667183513,-1.554214908744289,-1.5783845170198216,2
-0.3867879158798943,-3.998026043791232,0.4091219134719294,0.10592029432178557,-0.7370785948089404,-0.6790053414625966,-0.4273118238978429,-1.9028104533882402,1.0305156834628868,1.3618886850387197,-0.41661691078974467,0.7031865332209031,7
0.6344126405539644,-0.02517194241449869,-0.937365170354141,-0.10828369905184457,0.22086687786945605,0.15444218213146496,0.01589128564149947,0.22938745582397005,0.2030080151782856,-0.5369602835218827,0.8977830448729937,1.4750558538750078,1
0.28519379742114287,0.2703296023160019,-0.8750998716801031,-0.5092455093841792,0.6628896331110927,0.5815049132085233,-0.620008828045383,0.6408642453210633,0.0863082158048162,-0.5723898752479879,0.8009936519670483,1.3207917862336114,1
0.5497535270672204,-0.058005447384554605,-0.5365323101400218,-0.09012382292768323,-0.1490919390825265,-0.17809282981391253,-0.0033784147732545517,0.0797595323704816,0.3090987418814396,-1.2366947201124585,0.7080758347773409,0.582959377301096,4
-1.2333790507473426,1.2991127580444124,1.51822254610323,-0.12499903957522032,0.051493672589950384,-0.05149320597683989,-0.1479011678839097,0.04235255150710949,0.11813543381576239,1.369063177363256,-1.4612970915545815,-1.5097617111295207,2
0.17407871096978986,0.5548866453898175,-0.6688460698223524,-1.3206617925682964,2.0656118968893296,3.0345836244248674,0.10260493750789254,2.29924039693056,-1.7596704288300633,-0.22358554470448327,-0.19464656972544297,0.518179448540652,3
0.6238302513681214,0.8284991868069479,-0.7972682483375555,-0.18174865246322447,0.18919546550011762,-0.03039326867066111,-0.05155266581013959,0.5161743091098229,0.0969172884751316,-0.6033907680083298,0.9623093068102906,0.5796654826183615,1
0.999505067465552,-0.8569540683225753,-1.2097758520530568,3.706941184851502,-1.3080820294097673,-2.298636529084879,1.1720733105267405,-1.404050708543279,-3.0964135852898034,1.475883396417463,0.31317511172108353,-0.5215933063091875,3
-1.3286205534199305,-0.9445100815760571,1.3547761370838804,-0.16358877633906313,0.07168993555010825,-0.02237529249431318,-0.09009206663964762,0.204449468581722,0.07569914313450078,-0.7273943390496976,-1.570346474228613,-0.6077835505074055,2
-1.2122142723756564,1.7150038209984504,1.5298972896046121,-0.24241914769621797,0.045985600873543704,-0.06710715958341218,-0.05155266581013959,-0.3317172571266116,0.05448099779387,1.330356348402486,-1.4851718084713812,-1.7913897065033155,2
2.486330748076507,0.19371809071920557,-0.10456680058888365,-2.2131784316250886,0.16349113082355304,-0.20678874455031565,3.3977237084308296,-0.09480637832525492,1.6988872616927568,-1.071681396648124,0.8616483381881073,0.4358320814722909,3
0.39101768927957353,-2.2687947820349676,-1.128052647543382,-1.8712362186962783,0.4733201648714293,0.35489158654016323,-0.09009206663964762,-3.2993377389541325,-2.5235236610927716,1.659674403496633,0.4622307767962396,-0.5424546392998392,3
2.0101232347135682,-0.44106300536853726,-0.6727376509894798,-1.699749206660164,0.8203286830050506,2.3724675917569775,2.771458444951324,0.02988355788598546,-0.27440025498590737,0.4146785502413,0.5628917454184229,0.6515821831913969,3
-1.392114888534989,-1.0758441014562794,1.3742340429195172,-0.1984639929866002,0.10611538377765004,0.006742620988213524,-0.15753601809128667,0.16704248771834984,0.2242261605189164,-0.7284572268014808,-1.5819612013773265,-0.5561792004778993,2
-0.08518982408336621,-1.458901659440262,-0.4781585926331112,-2.001657147224346,0.39574815486536835,-0.22535668937975295,-1.1017513384142337,-2.463915166338822,-0.48658170839221543,0.5243331366335953,0.48223391799680176,-0.39807225570664584,3
0.655577418925651,1.5289472928348018,-1.314848543565496,1.0023578157235673,-0.008636110314155954,2.050904547210813,0.35311104289969475,3.184538944030367,-1.14434421395177,-0.23908599108465425,0.5106254732492123,1.6671997103678504,7
0.11058437585473167,-1.458901659440262,-0.6299302581510786,2.3449504755394033,-1.551814202860763,0.5287550699430764,-1.0535770873773485,-3.823035471041342,0.2348352331892318,0.6632171361999273,1.1036218204529706,-1.4652941329126057,3
1.2640647971116294,0.2593851006593167,-0.22520581676983215,1.1377314377400425,-0.4244955249028609,-0.06204317462992927,1.3358657640521494,0.1795114813394739,0.8183342300565788,-0.847500655001194,0.6641979766599786,0.20580843612800198,3
-1.2069230777827349,-0.2440619755482032,1.4364993415935552,0.12263563484516134,-0.40751230377727365,-0.34942432074008417,-0.05155266581013959,0.05482154512823353,0.1711807971673394,-0.7434262293057602,-1.4813002327551437,-0.9196055804729328,2
0.5338799432884551,-0.2331174738915177,-0.633821839318206,-0.21146481339367026,0.06021478614092765,-0.20974273577318067,-0.0033784147732545517,0.06729053874935757,0.2242261605189164,-1.2986965056331423,0.6842011178605408,0.8025523561500589,1
0.4280560514300245,-0.02517194241449869,-0.8206177353403198,-0.5401998436867269,0.1547700172725758,0.42072339093544103,-0.3309633218240728,0.09222852599160565,0.160571724497024,-0.5729213191238794,0.8577767624718693,1.0808864568411194,1
1.5127509429789419,0.2703296023160019,-0.22909739793695943,-0.47313211936454025,0.5192207625081517,-0.6342734743734976,1.72125977234723,-0.9052909636983174,0.531889267958063,-0.3758442151474199,0.7448558040815997,-0.737892390475416,3
0.7878572837486898,0.21560709403257577,-0.8828830340143576,-0.08496476721059194,0.06618186383370156,-0.20425675207357422,0.3434761926923177,0.5909882708365671,0.07569914313450078,-0.39851915385212716,0.8209967931676105,1.255462875026045,7
0.7878572837486898,1.2006122431342452,0.10947016360312184,0.6243022127751179,-1.1185125611701037,-0.8292368950825896,0.2663973910333017,0.6658022325633114,2.261168113219473,0.6532968505166178,0.9300461758416422,0.1201671743769067,3
0.6344126405539644,-0.09083895235461004,-0.7038703003264987,-0.2321010362620354,0.020281266196979154,-0.0168893087947067,0.09297008730051552,0.2917324239295902,0.425798541254909,-0.5701755257651063,0.7809905107664862,1.1764094026404182,1
0.06825481911135924,-0.1127279556679805,-0.7233282061621356,0.7146888689385571,-0.6769488119048341,1.0089896430317054,-0.7067224799117763,0.5660502835943191,-0.4653635630515846,0.5879292537819539,0.5067538975329743,0.7031865332209031,3
0.5021327757309256,-0.33161798880168497,-0.7233282061621356,-0.07217030903220556,0.045985600873543704,-0.06710715958341218,-0.09972691684702464,0.09222852599160565,0.2030080151782856,-1.241654862954113,0.7287242385972755,1.053437334484999,1
-1.4556092236500477,-0.6271195335321859,1.3625592994181353,-0.5222463297912493,1.2853017370650486,0.5422590298190308,-0.09009206663964762,0.4912363218675748,-0.1364823102718072,1.407858580303341,-1.6832674326188828,-0.6626817952196462,8
0.655577418925651,1.1349452331941339,-0.937365170354141,0.370270309265543,0.11208246147042394,0.6422727326503181,0.07370038688576151,1.4264108434518774,0.07569914313450078,-0.6432490587001981,0.9016546205892316,1.2691874362041051,1
0.7084893648548664,0.18277358906252034,-0.5015080796358755,-0.06577307994301237,-0.24640120607237798,-0.13293896397868996,0.19895343958166264,0.12963550685497777,0.6379799946612169,-1.2532580542444125,0.8171252174513726,0.6312698326478676,1
-1.254543829119029,1.0145557149705966,1.5649215201087585,-0.2384982653512286,0.2236209137276594,-0.014357316317965248,-0.1382663176765327,-0.10727537194637897,0.21361708784860098,1.3712775268461377,-1.4813002327551437,-1.4515695717345456,2
0.7031981702619449,1.44139127958132,-0.9762809820254146,1.7465000123568142,0.30119292373372025,-2.0057693992751178,-0.29242392099456477,-0.8554149892138212,-0.21074581896401495,0.19598939531191636,1.349466878434072,-2.1581099811810835,3
0.4386384406158674,-0.06894994904123959,-0.7427861119977724,-0.08248842046638813,0.0230353020551825,-0.07512513575976011,-0.19607541892079472,0.40395336651970654,0.107526361145447,-1.2637983577829288,0.7080758347773409,1.0325760014943475,1
-1.2968733858624013,-0.02517194241449869,1.4987646402675932,-0.028215154322587813,-0.0627988155254884,-0.24898861916267317,-0.23461481975030274,0.1421045004761018,0.29848966921112424,-0.7318230380154608,-1.469040242987057,-0.9745038251851738,2
-0.10635460245505197,-0.4957855136519631,-0.0539762454162277,0.212815928779917,-0.7742580788946857,0.33379164923398447,-0.8801497836445623,0.004945570643737382,0.7228525760237401,-0.12677418531290102,0.3654413838902942,0.31560492555248343,3
0.9518843161292582,1.5508362961481723,0.12503648827163133,0.4980085288207232,-1.4659800852800922,-0.06204317462992927,0.8733929540980531,0.12963550685497777,2.7491854560539815,0.488814970928175,1.119753385937295,0.2607066808402427,3
0.015342873182142976,-0.4957855136519631,-0.2835795342767427,-0.6666998898698052,0.44486179433666134,0.9351398624600796,-0.6585482288748912,0.06729053874935757,0.1499626518267086,1.398381164516608,0.3615698081740562,0.34964183727407294,3
0.5973742784035143,0.7081096685834106,-0.8245093165074473,-0.15471520050566612,0.06618186383370156,-0.2148067207266636,0.8348535532685452,1.8129496457067227,-2.1522061176317333,0.4860691775694018,0.055070063971895906,0.15091019141576123,3
-1.1857582994110487,1.3647797679845237,1.51822254610323,-0.18298682583532636,0.07444397140831159,-0.014357316317965248,-0.07082236622489362,0.12963550685497777,0.1393535791563932,1.495812541763397,-1.4529086775027327,-1.5031739217640518,2
0.09471079207596642,-1.2619006296199284,-0.6960871379922439,0.167828962926881,-0.36987381371516126,1.9213509321508757,-0.5525648765937441,-0.6185041104124644,-0.7093722344688388,-0.9033908359491247,0.39770451485894265,0.5796654826183615,3
0.4598032189875541,-0.17839496560809184,-0.591014446479805,-0.034818745640464666,0.12355761087960455,-0.04600722227723341,-0.16717086829866368,-0.007523422977386649,0.2242261605189164,-1.2471464496716596,0.7125926731129513,0.658718955003988,1
-0.14868415919842443,0.4454416288229655,-0.47426701146598377,0.7584376614194913,-0.8949766506792656,2.037400587334859,-0.9572285853035783,0.9525890858491642,-0.5184089264031615,-0.6831073493920663,0.34930981840597,0.19208387494994178,3
-1.3974060831279105,0.7081096685834106,1.6232952376156693,-0.0630903709701249,0.1088694196358534,-0.048539214753974866,0.03516098605625347,0.3042014175507143,0.1287445064860778,1.3547141927141835,-1.6910105840513587,-1.2248398210729912,2
-1.2968733858624013,1.244390249760986,1.5337888707717393,-0.024500634206282096,-0.025619331439743247,-0.03545725362414402,-0.02264811518800857,0.2543254430662181,-0.019782510898337803,1.3607372233076214,-1.578089625661089,-1.4274143440611595,2
-1.1540111318535191,-0.38634049708511087,1.4053666922565362,-0.16235060296696122,-0.008636110314155954,-0.1700748536375646,0.03516098605625347,-0.2444343017787434,0.05448099779387,1.437176567456693,-1.4813002327551437,-1.001952947541294,2
0.507423970323848,0.05143956918229764,-0.6143639334825692,-0.10436281670685518,0.14054083200519185,-0.05402519845358134,-0.12863146746915566,0.0797595323704816,0.2348352331892318,-1.2515751486374227,0.7687305209983999,0.6038207102917472,1
0.2799026028282205,-0.5176745169653336,-0.4937249173016207,0.5004848755649269,-0.38456200495891246,-0.1147930178953762,-0.3309633218240728,0.1421045004761018,0.2242261605189164,-1.2593696588171657,0.5144970489654502,0.7580847779331439,1
-1.3127469696411656,1.3100572597010973,1.5610299389416313,-0.11736363711392522,-0.011390146172359299,-0.12787497902520706,-0.08045721643227062,-0.06986839108300685,0.04387192512355459,1.4748205086656796,-1.5580864844605269,-1.5580721664762927,2
0.507423970323848,-0.2878399821749441,-0.7622440178334092,-0.11220458139683394,-0.008636110314155954,-0.14095694015503787,-0.11899661726177865,0.10469751961272968,0.24544430585954718,-0.5701755257651063,0.7648589452821619,1.1495092627314203,1
-1.402697277720832,-1.1086776064263353,1.424824598092173,-0.003864411337916957,0.08913216265206275,0.2650058536158417,-0.0611875160175166,0.0797595323704816,0.1499626518267086,-0.7788558210318653,-1.642615887598386,-0.6725634792678495,2
-0.5402325590746193,0.784721180180207,0.45582088747745786,0.7340869184348204,-1.551814202860763,-0.2148067207266636,-1.4389710956724286,-0.03246141021963473,0.8183342300565788,-0.16716391988066087,0.1441163054453658,-0.95089757995891,3
0.5550447216601418,-0.5286190186220185,-1.1124863228748727,0.28504270881919497,-0.011390146172359299,2.4623533246812994,0.8059490026464141,-0.06986839108300685,-3.4889492740914734,0.29900093325556687,-0.07398245990269792,-0.23722039869978054,3
0.5550447216601418,-0.16745046395140686,-0.8050514106718103,-0.1481116091877893,0.0574607502827243,-0.06457516710667073,-0.07082236622489362,0.10469751961272968,0.21361708784860098,-0.5696440818892147,0.8171252174513726,1.1665277185922147,1
-0.8577042346499126,1.8353933392219877,-0.4158932939590732,0.585712476011275,1.12464964533652,1.9665047979860981,-2.5277091691060303,1.301720907240637,-0.04100065623896859,-1.1043651950154558,0.6358064214075682,-0.38819057165844256,3
1.3434327160054529,-0.7803425567257785,0.30794080312661787,1.208513682178535,-1.9451823246074742,-2.6126035962008194,1.5381976184070667,-1.740713536313628,1.6670600436818108,-0.9427176827651014,0.5874117249545954,-0.5764915510214282,3
0.962466705315101,1.7040593193417652,-0.9918473066939241,-0.0915683585284688,0.7175113442987925,1.9108009634977863,0.767409601816906,-0.05739939746188281,-1.8975883735441634,-0.5684926201581163,0.6758127038086925,-1.46858802759534,3
-0.3391671645436004,-0.9773435865461125,-0.5793397029784227,0.9441636672347775,0.32414322255208144,0.24939190000926945,-0.9572285853035783,0.26679443668734215,-1.1549532866220855,1.1531198157926454,0.047326912539420445,0.4594383266985544,9
0.5920830838105928,-0.35350699211505543,-0.6065807711483144,-0.04369232147386168,0.014314188504205247,-0.2624925790386276,0.02552613584887647,0.01741456426486141,0.6485890673315323,-1.1142854806987654,0.7687305209983999,1.1560970520968892,1
-0.5666885320392274,-1.5902356793204846,-0.6493881639867155,-0.9607660657440085,0.0689358996919049,0.932607869983338,-1.8532696545896403,-1.9526864278727365,-0.8685083245235697,1.1338106883019181,0.5028823218167363,-0.08570124329399603,3
-1.2175054669685779,1.3100572597010973,1.557138357774504,-0.14315891569938163,0.10611538377765004,-0.048539214753974866,-0.11899661726177865,0.02988355788598546,0.2242261605189164,1.3685317334873643,-1.4574255158383436,-1.5168984829421122,2
2.1741502670941357,0.02955056586892719,0.1483859752743956,0.3405541483350972,-0.21518879967940677,0.9587717922429998,2.742553894329193,-1.3042987595742865,2.3248225492413654,1.4261048200422852,1.0229639930313497,-0.5045748504483929,3
-1.4185708614995967,0.8284991868069479,1.584379425944395,-0.18298682583532636,-0.19223850086104557,-0.22535668937975295,-0.05155266581013959,-0.08233738470413086,-0.019782510898337803,1.3602057794317297,-1.6748790185670344,-1.3933774323395702,2
0.9518843161292582,0.8613326917770036,-0.602689189981187,0.3690321358934411,-0.1261416402641653,0.7135905207452025,0.5554428972546119,0.9650580794702882,0.988079392781625,-0.36477246773301203,0.9500493170422043,1.2181320686217212,7
1.1529497106602766,-0.9663990848894276,-0.1123499629231384,-1.1580483563655792,0.44486179433666134,0.9954856831557508,1.2395172619783796,-0.25690329539986734,1.401833226923926,0.4030753589510006,0.5267570387335365,0.9090549508918059,3
-0.862995429242834,-2.3016282870050238,-1.3070653812312412,0.3741911916105324,-0.8890095729864917,-2.037419305234386,-1.4197013952576747,0.7406161942900555,-2.5023055157521408,0.6233588455080591,-0.29595280096699916,1.3515348032724663,3
1.7349811158816468,-0.32067348714499955,-0.2057479109341952,2.1901788040266648,-0.525017833727283,1.33055268757787,1.5189279179923125,-1.2918297659531628,0.7652888667050017,0.6211444960251775,0.9139146103573179,-0.5150055169437188,3
0.5603359162530632,-0.07989445069792506,-0.6532797451538429,-0.1984639929866002,0.14926194555616912,0.022356574594785822,-0.032282965395385575,0.02988355788598546,0.2030080151782856,-1.1004679399255843,0.7648589452821619,0.7202049890816978,4
-1.2016318831898132,-0.1455614606380364,1.4715235720977013,-0.2527372591304005,0.18093335792550755,0.1569741746082064,-0.10936176705440163,-0.03246141021963473,0.2560533785298626,-0.7351002752501256,-1.4851718084713812,-0.9849344916804993,2
0.22169946230608376,-0.15650596229472138,-0.05008466424910041,0.12139746147305942,-1.0611368141242008,-0.11732501037211766,-0.6585482288748912,-0.4314692060956039,1.6564509710114954,-0.2070222105725291,0.7971220762508103,0.3326233814132782,3
-1.577306699287243,1.3100572597010973,1.6816689551225792,0.0634096752129534,-0.1835173873100683,-0.11985700284885911,-0.35986787244620383,0.6533332389421874,0.2348352331892318,1.3579914299488482,-1.699398998103207,-1.3895345552097134,2
0.5021327757309256,-0.13461695898135095,-0.5871228653126775,-0.2409746120954324,0.2236209137276594,0.14093822225551053,-0.05155266581013959,0.26679443668734215,0.05448099779387,-1.1220799908785084,0.6480664111756543,0.7377724273896149,1
0.5603359162530632,-0.2002839689214623,-0.5987976088140597,-0.15327066490488056,0.1318197184542146,-0.2439246342091903,-0.05155266581013959,-0.1820893336731232,0.33031688722207037,-1.096659258815028,0.7809905107664862,0.6554250603212538,4
-1.3021645804553228,1.5727252994615426,1.5298972896046121,-0.18566953480821383,-0.03158640913251715,0.08565638651332214,-0.1479011678839097,0.05482154512823353,0.0226537797829238,1.359674335555838,-1.5174349394400297,-1.6096765165057987,2
0.8196044513062194,0.6205536553299289,-0.07732573241899193,0.8191081566524847,-0.6824568836212408,-0.684491325162203,0.584347447876743,1.6757907158743586,1.9216777877693805,0.4046696905786754,0.5874117249545954,1.273030313333962,3
-1.333911748012852,-1.1196221080830202,1.3586677182510076,-0.16874783205615443,0.04873963673174705,-0.0409432373237505,-0.10936176705440163,0.0797595323704816,0.1499626518267086,-0.7268628951738061,-1.574218049944851,-0.5764915510214282,2
0.02592526236798679,-0.5505080219353891,-0.781701923669046,0.7495640855860942,-0.4993134990507185,1.0271355891150191,-0.8223406824003003,0.1421045004761018,-0.3911000543593767,-1.1343032000240147,0.5467601799340986,0.88489972321842,3
-0.27567282942854177,0.10616207746572377,-0.7038703003264987,-1.7385453056526903,2.0885621957076905,0.48655519533071884,-1.0054028363404635,1.7630736712222266,-0.741199452479785,0.45728263429194144,0.1879941635627277,0.922779512069866,3
1.8566785915188428,-0.2331174738915177,-0.4003269692905637,0.6655746585118482,-1.0583827782659974,-2.1665509215482,3.474802510089846,1.9002326010545907,-1.165562359292401,-0.19533044530291446,-0.29595280096699916,0.5489224655795065,3
1.772019478032098,-0.3644514937717404,-0.43535119979471,-0.0694876000593181,-0.6140649931425245,-0.8503368323887683,2.1355583312644413,-0.6683800848969605,0.7652888667050017,-1.0118939606103217,0.8816514793886695,0.3908155208082535,3
0.11058437585473167,-0.8350650650092049,-0.6260386769839512,-1.0303101368103988,0.14926194555616912,-0.834722878782196,-0.49475577534948195,-0.7307250530025808,-1.038253487248616,0.4329247899802442,0.3654413838902942,0.013664579635159416,3
1.0841641809522968,0.12805108077909422,-0.8322924788417019,1.8187267923960921,-1.6179110634576432,-1.7445521754246247,0.8830278043054302,0.8902441177435441,-0.8578992518532543,-1.0810702384555417,0.5267570387335365,0.47700576500647146,3
0.17407871096978986,0.226551595689261,-0.5326407289728943,0.18578247682235868,-0.7857332283038664,-0.2384386505095838,-0.4658512247273509,0.8029611623956758,-0.22135489163433036,0.8437309060444327,0.4661023525124775,0.4731628878766146,3
1.195279267403649,0.883221695090374,-0.9840641443596694,-0.179065943490337,0.9782267388753756,-1.3331033979541385,1.4322142661259196,0.7281472006689316,-2.1309879722911025,1.8390367116100401,0.40996450462702894,-0.30584320459008146,4
-1.3021645804553228,1.244390249760986,1.572704682443013,-0.09528287864477451,-0.011390146172359299,-0.09116108811245598,-0.07082236622489362,-0.14468235280975109,0.0863082158048162,1.4748205086656796,-1.554214908744289,-1.561366061159027,2
-1.7519161208536544,-0.8241205633525194,1.8373322018076743,-0.7892790537078941,0.8809174718855242,0.05400648055405398,-0.38877242306833487,-0.9801049254250616,0.6273709219909015,1.3524998432313018,-1.7961883910091523,-1.0947309811049808,2
0.1158755704476531,-0.33161798880168497,-0.06954257008473719,-0.9324944404143483,-0.8146506048150014,-1.9926874381452868,-0.6103739778380061,-0.06986839108300685,0.9456431021003635,0.3509938591136261,0.494493907764888,0.29144969787909764,3
-1.2968733858624013,1.178723239820875,1.6077289129471595,-0.15719154724986992,0.051493672589950384,-0.03841124484700905,-0.1382663176765327,0.09222852599160565,0.2560533785298626,1.3712775268461377,-1.5219517777756404,-1.45486346641728,2
0.3381057433503582,-0.0032829391011282402,-0.5559902159756586,0.5766325379491943,-0.18076335145186498,-0.18315681476739543,-0.36950272265358086,0.22938745582397005,0.266662451200178,-1.27761589855611,0.6880726935767787,0.6417004991431936,1
-0.7677539265702462,-2.6627968416756356,-1.0035220501953064,-2.4414150565492068,0.09785327620304002,-0.7870370204702319,-2.2001242620552124,-3.473903649649869,-2.046115390928579,1.4753519525415713,0.4783623422805638,-0.3601924668551999,3
0.5338799432884551,-0.2331174738915177,-0.8089429918389378,-0.09528287864477451,0.04873963673174705,-0.08018912071324302,-0.09972691684702464,0.10469751961272968,0.19239894250797018,-0.5723898752479879,0.7971220762508103,1.2005646303138042,1
-1.0270224616234018,1.605558804431598,1.3703424617523898,0.07496596001923786,0.21535880615304936,0.06455644920714337,0.054430686471007496,0.216918462202846,-0.14709138294212257,1.3435538713204604,-1.3722508500811117,-1.5580721664762927,2
0.18466110015563275,0.05143956918229764,-0.6454965828195881,-0.12107815723023094,0.24106314082961391,0.2861057909220205,-0.49475577534948195,0.7655541815323037,-0.22135489163433036,-1.328545936662386,0.5106254732492123,0.7377724273896149,1
-0.5402325590746193,-1.8966817257076705,-0.8478588035102114,-1.1064577991946665,0.006052080929595209,0.945689831113169,-1.3329877433912818,-0.8803529764560692,-1.9081974462144786,-1.0241171697558278,0.058941639688133866,0.4083829591161705,3
0.5550447216601418,-0.5942860285621299,-0.6532797451538429,-0.4976892245778947,0.1662451666817564,-0.009293331364482339,0.12187463792264656,0.10469751961272968,0.03326285245323921,-1.2964821561502609,0.5628917454184229,0.9469347397432518,1
-0.3973703050657376,-0.39728499874179635,-0.8517503846773388,-1.4172393155922451,-1.443029786461731,0.3574235790169047,-2.0363318085298032,-2.326756236506457,-0.009173438228022395,1.3540941748589765,1.2288027686113265,-0.8784318969387522,3
0.2799026028282205,0.16088458574914988,-0.7778103425019187,-1.1361739601251122,1.2192048764681682,-1.6365204964169893,-0.2731542205798108,-0.08233738470413086,-1.3883528853690241,0.41361566248951687,0.4661023525124775,-0.2405142933825151,3
0.047090040739672545,-1.4151236528135211,-0.6805208133237344,0.8630633113621026,-2.1857014562238994,-2.053455257587082,-0.6007391276306291,-0.9551669381828134,-0.9109446152048314,0.37366879781833345,0.3615698081740562,0.37379706494745873,3
-1.402697277720832,0.8722771934336888,1.615512075281414,-0.06061402422592109,0.006052080929595209,-0.048539214753974866,-0.15753601809128667,0.0797595323704816,0.19239894250797018,1.4997097968532687,-1.6026096051972616,-1.3522037488053897,2
0.17407871096978986,0.11710657912240899,-0.2796879531096152,1.3259337902995327,-1.9135109122381355,-1.1773858606345393,-0.8127058321929234,-1.9776244151149844,0.6167618493205861,0.22530738246526835,0.8900398934405178,-1.4998800270813173,3
-1.3392029426057737,1.1021117282240782,1.603837331780032,-0.12499903957522032,0.0689358996919049,-0.05951118215318782,-0.10936176705440163,0.1795114813394739,0.2030080151782856,1.4919152866735255,-1.570346474228613,-1.3966713270223048,2
0.49684158113800414,-0.35350699211505543,-0.7778103425019187,0.04524979908879207,-0.19223850086104557,-0.1700748536375646,-0.09009206663964762,0.004945570643737382,0.0014356344422930141,-1.2211942737322874,0.7525989555140756,1.0259882121288788,1
0.4915503865450827,-0.2002839689214623,-0.5871228653126775,-0.09404470527267261,-0.0458155943999011,-0.0409432373237505,-0.0033784147732545517,0.37901537927745843,0.0863082158048162,-1.1215485470026167,0.5790233109027472,0.7855339002892642,1
-1.132846353481833,1.7587818276251912,1.5026562214347203,-0.07340848240430747,-0.025619331439743247,-0.14897491633138582,-0.0033784147732545517,-0.08233738470413086,0.06509007046418541,1.338062284602914,-1.4451655260702572,-1.7227669006130149,2
0.8196044513062194,-1.043010596486224,0.385772426469165,0.6643364851397462,-1.5348309817351755,-2.1429189917652796,0.4687292453882189,-1.8155274980403722,2.367258839922627,-1.1823988707922024,0.7525989555140756,-0.28498187159943,3
0.3857264946866521,1.4304467779246348,-0.30692902127950694,1.6509543004762837,-1.6124029917412366,-0.28865650129828924,-0.47548607493472794,1.0523410348181566,1.348787863572349,0.5906750471407272,0.9706977208621389,0.41167685379890473,3
0.5285887486955337,-0.32067348714499955,-0.633821839318206,-0.09280653190057071,0.11483649732862732,0.059492464253660456,-0.05155266581013959,0.11716651323385371,0.4470166865955398,-1.2438692124369948,0.7242074002616652,1.0808864568411194,1
0.48096799735923984,0.18277358906252034,-0.5092912419701302,-0.1972258196144983,0.32414322255208144,0.34180962541033244,-0.12863146746915566,0.34160839841408636,0.2348352331892318,-1.2632669139070372,0.6919442692930167,0.6417004991431936,1
0.5232975541026123,-0.16745046395140686,-1.0385462806994525,-0.44486049403488,0.2236209137276594,-1.7183882531649628,0.32420649227756376,0.902713111364668,-1.749061356159748,0.3803118462669781,0.31317511172108353,0.6345637273306022,3
2.3487596886605466,-0.38634049708511087,-0.29525427777812474,-0.061852197598023,0.2236209137276594,0.006742620988213524,3.089408501794765,-1.2294847978475423,1.2320880641988794,0.6548911821442926,0.9745692965783769,0.09930584138625508,3
0.17407871096978986,1.9448383557888398,-0.9023409398499945,1.4588310655718042,-0.8348468677751593,1.8610051114552044,-0.5621997268011211,1.239375939135017,-1.727843210819117,-0.6831073493920663,0.5628917454184229,-0.6862880404459097,3
-1.3180381642340875,1.091167226567393,1.549355195440249,-0.03997780135755595,0.0028390390950246472,-0.10677504171902827,-0.0611875160175166,-0.06986839108300685,0.012044707112608393,1.3585228738247397,-1.574218049944851,-1.479018694090666,2
0.5550447216601418,0.02955056586892719,-0.8400756411759568,-0.38563453440267204,-0.0687658932182623,-0.5342597715422103,-0.1479011678839097,-0.0199924165985107,0.1711807971673394,-0.5994935129184583,0.9300461758416422,1.0018329844554925,1
0.20582587852731943,-0.02517194241449869,-0.48983333613449326,-0.7337676141919919,1.6125729982148795,1.41790642802545,-0.53329517617899,-0.3566552443688597,-0.2425730369749612,0.34435081066498147,0.5674085837540332,-0.09283801510658747,3
0.25873782445653476,-0.7037310451289821,-0.7427861119977724,1.1608440073526114,0.3213891866938781,1.0089896430317054,-0.19607541892079472,0.12963550685497777,-0.9427718332157776,-0.20923656005541066,0.3370498286378837,0.5763715879356269,3
1.391053467341747,0.3141076089427428,0.1016870012688671,-0.12231633060233285,-0.4332166384538381,-0.4287600850113164,1.836877974835754,-0.8803529764560692,2.123250168505373,0.654359738268401,0.9745692965783769,0.0960119467035205,3
0.6238302513681214,1.2662792530743563,-1.1008115793734905,1.32861649927242,1.0645198624324137,-0.4312920774880578,0.1796837391669086,1.214437951892769,-3.0964135852898034,1.262242958309049,0.25639200121626254,-0.4666950615969468,3
-0.06402504571167952,-0.27689548051825863,-0.517074404304385,-2.370426449882031,1.8044374963363792,1.304388765318208,-0.8705149334371853,-0.0199924165985107,-0.5077998537328461,-0.24634905738850574,0.42222449439511517,0.16463475259382143,3
-0.20688729972056163,-0.5067300153086481,-0.559881797142786,0.6412239155271773,0.6656436689692962,1.9610188142864917,-1.1113861886216105,0.7655541815323037,0.06509007046418541,-1.028545868721591,0.39770451485894265,1.0259882121288788,3
-1.2227966615614994,1.3647797679845237,1.5649215201087585,-0.1972258196144983,0.10611538377765004,-0.048539214753974866,-0.08045721643227062,-0.06986839108300685,0.18178986983765477,1.3496654758932134,-1.4813002327551437,-1.575090622337087,2
0.5550447216601418,-0.058005447384554605,-0.7194366249950082,-0.1972258196144983,-0.41577441135188364,-1.3044074832177355,-0.08045721643227062,0.10469751961272968,0.3409259598923858,-1.0893961925111766,0.8332567829356968,1.005126879138227,1
0.2904849920140643,-1.5355131710370589,-1.1358358098776369,0.536598265584566,-0.8174046406732047,-0.1147930178953762,-0.05155266581013959,-0.9551669381828134,-2.3431694256974103,-0.0065792953820895585,0.25639200121626254,0.25356990902765164,3
1.2905207700762367,-0.13461695898135095,-0.8011598295046828,-0.5519624907216951,0.45633694374584194,-0.4996558743600771,1.3744051648816575,-0.5187521614434721,-0.900335542534516,-0.8374917953385693,0.6596811383243683,-0.0549582262551415,3
0.36456171631496537,-0.46295200868190767,-1.159185296880401,-2.2144166049971905,1.4514619005099836,-1.1351859860221818,0.23749284041117066,1.0648100284392805,-2.4068238617193023,-1.0534351569091798,-0.01719934939787647,0.7202049890816978,3
-1.2227966615614994,1.4195022762679494,1.5260057084374847,-0.11860181048602714,0.051493672589950384,-0.05951118215318782,-0.05155266581013959,0.06729053874935757,0.11813543381576239,1.3496654758932134,-1.4851718084713812,-1.5717967276543527,2
1.1317849322885907,0.8175546851502626,-0.9101241021842493,0.23221397827618018,0.0574607502827243,-0.7372411684276501,1.2009778611488715,1.6633217222532342,-0.8472901791829389,-1.1791216335575376,0.5428886042178607,0.7855339002892642,3
1.184696878217806,0.325052110599428,-0.886774615181485,-0.5725987135900602,0.35856867077962323,-0.6714093640323723,0.8733929540980531,-1.6284925937235113,-1.1019079232705085,0.1998866504017879,0.8616483381881073,-1.1600598923125471,3
-0.15397535379134586,1.3538352663278381,-0.5443154724742765,0.29288447350917374,-1.4288006011943473,1.12757129069243,-1.1691952898658724,2.261833416067188,-0.04100065623896859,-1.1071109883742292,0.47061919084808784,0.6757374108647828,3
-0.19101371594179686,0.05143956918229764,-0.3302785082822712,0.11747657912807005,-1.1015293400445163,-1.1064900712857786,-1.1017513384142337,0.31667041117183836,0.0014356344422930141,0.5010381800736812,0.4299676458275911,0.15091019141576123,3
1.0524170133947672,0.5986646520165584,-1.011305212529561,-1.5476602441203127,1.1935005417916036,-0.20425675207357422,0.9793763063792003,-0.1820893336731232,-1.8445430101925864,-0.9405033332822198,0.6196748559232439,-0.5699037616559595,3
0.8830987864212776,-0.1455614606380364,-0.19407316743281317,-0.01149981379921206,-0.6338022501263151,0.23335594765657355,0.5458080470472348,-0.38159323161110775,1.2320880641988794,-1.1857646820061822,0.7848620864827242,0.3430540479086038,4
1.7349811158816468,-0.04706094572786914,-0.19796474859994045,0.44765614502191226,-0.5879016524895927,0.045988504377706046,2.077749230020179,-0.9177599573194413,0.9244249567597328,0.4119327568825269,0.8048652276832863,-0.3195677657681416,3
0.507423970323848,-0.09083895235461004,-0.8984493586828671,-0.2036230487036915,-0.19223850086104557,0.0881883789900636,-0.2635193703724338,-0.31924826350548763,0.1499626518267086,-0.5707069696409979,0.9945724377789391,1.0495944573551423,1
-0.2703816348356203,0.3907191205395394,-0.3263869271151437,1.332331019388726,-1.781317191044375,0.28905978214488554,-1.573858998575707,0.553581289973195,1.3169606455614027,0.5342534223169048,0.8255136315032209,0.9019181790792145,3
-0.24921685646393407,-1.2728451312766134,-0.3419532517836532,0.5031675845378145,-1.256214354080271,-1.0984720951094307,-1.3811619944281666,-1.2045468106052943,0.6061527766502707,0.4506395858432967,0.6235464316394819,0.4940242208672658,3
-1.238670245340264,1.6931148176850799,1.5337888707717393,0.1769089009889617,-0.3212191802202355,-0.3046924536509852,-0.49475577534948195,0.6533332389421874,0.47884390460648596,1.5135273376264495,-1.279978295510777,-1.4482756770518113,2
-1.1857582994110487,-0.8460095666658898,1.3781256240866449,-0.25645177924670626,0.14926194555616912,0.08565638651332214,0.0640655366783845,-0.25690329539986734,0.03326285245323921,-0.7500692777544049,-1.5296949292081163,-0.7927906351876568,2
0.5232975541026123,-0.22217297223483273,-0.6493881639867155,-0.24881637678541116,0.11483649732862732,-0.003807347664875862,-0.05155266581013959,-0.11974436556750298,0.0014356344422930141,-1.2643298016588205,0.7080758347773409,0.5692348161230358,1
-1.9106519586413009,0.24844059900263143,-0.7544608554991545,-0.5505179551209095,1.3711358546457193,-0.05402519845358134,-3.8573184977240578,1.9376395819179633,-1.2822621586658702,-0.7185369411181713,0.07959004350806889,0.7273417608942889,8
0.544462332474298,-0.26595097886157365,-0.7972682483375555,-0.12107815723023094,0.014314188504205247,-0.03841124484700905,-0.09009206663964762,0.04235255150710949,0.0863082158048162,-0.5718584313720962,0.8048652276832863,1.190682946265601,1
-1.3444941371986951,1.0036112133139115,1.5960541694457775,-0.15203249153277865,0.12355761087960455,-0.027861276193919662,-0.09009206663964762,0.15457349409722584,0.1499626518267086,1.339745190209904,-1.5864780397129374,-1.3692222046661844,2
-0.2015961051276402,-3.5930794824938785,-0.46259226796460173,0.08012501573632914,-2.590544727379791,-0.773955059340401,-0.9475937350962015,-2.5137911408233182,0.6804162853424786,0.3947494048953659,0.2725235667005868,1.1972707356310697,3
0.2534466298636133,-1.3932346495001506,-0.7933766671704282,0.013057291414142462,0.8951466571529081,1.1617531891284394,-0.6007391276306291,-2.414039191854326,-0.7199813071391542,0.6238902893839506,0.7932505005345725,-0.3124309939555504,3
-1.3392029426057737,0.9379442033738001,1.6077289129471595,-0.14439708907148355,0.04873963673174705,-0.08314311193610804,-0.10936176705440163,0.04235255150710949,0.19239894250797018,1.4969640034944953,-1.570346474228613,-1.3796528711615101,2
0.21111707312024086,0.6424426586432993,-0.5482070536414038,0.15751085149269842,-0.8376009036333626,-0.39711017905204826,-0.23461481975030274,1.4762868179363737,-0.688154089128208,-1.0445777589776535,0.2970435462367593,0.356778609086664,3
0.5603359162530632,-0.13461695898135095,-0.7972682483375555,-0.15203249153277865,0.09464023436846944,-0.08567510441284949,-0.0611875160175166,0.15457349409722584,0.2242261605189164,-0.5679611762822248,0.8171252174513726,1.1665277185922147,1
-1.3815324993491458,0.883221695090374,1.557138357774504,-0.13923803335439228,0.07765701324288216,-0.048539214753974866,-0.1479011678839097,0.0797595323704816,0.05448099779387,1.4986469091014853,-1.5864780397129374,-1.3554976434881243,2
0.507423970323848,-0.34256249045836995,-0.5676649594770408,-0.14563526244358546,0.07168993555010825,-0.2439246342091903,-0.08045721643227062,-0.1820893336731232,0.36214410523301654,-1.12429434036139,0.7080758347773409,0.6998926385381685,1
0.5497535270672204,1.8135043359086174,-0.43535119979471,1.6354771333250098,0.3099140372846975,0.24137392383292147,0.0640655366783845,0.4787673282464508,-0.4547544903812692,-0.27788139402473927,0.6235464316394819,-1.146335331134487,3
0.32223215957159296,-0.15650596229472138,-0.8167261541731924,0.23345215164828215,1.024127336512098,-0.5367917640189517,0.03516098605625347,0.8278991496379238,-1.5050526847424934,0.3681772111007871,0.21638571881513818,0.43198920434243404,3
-0.20688729972056163,1.4632802828946905,0.19897653044705135,-0.1714305410290419,-0.6195730648589312,1.0853714160800725,-1.4389710956724286,0.19198047496059795,1.4442695176051874,1.7964326275593987,0.551277018269709,-0.7274617239800902,3
0.544462332474298,-0.07989445069792506,-0.591014446479805,-0.6318246732222681,2.07708704629851,1.5867059264748802,-0.08045721643227062,-0.8678839828349453,-0.10465509226086099,1.3995326262477064,0.8009936519670483,-0.2300836268871893,3
0.5867918892176704,0.5658311470465027,-0.42367645629332795,1.7592944705352007,-0.47636320023235723,-1.507388880103175,0.006256435434122452,1.4139418498307537,1.751932625044334,-0.14670333065883515,0.7771189350502482,1.859343566860693,1
-0.06402504571167952,0.30316310728605755,-0.33417008944939847,0.1393509753685371,-0.8862555371282883,-0.49205989692985275,-0.9957679861330864,0.4912363218675748,0.38336225057364737,-1.0634440165718044,0.5712801594702712,0.29858646969168906,3
-1.2968733858624013,1.2006122431342452,1.5454636142731215,-0.0992037609897639,0.0574607502827243,-0.1253429865484656,-0.0611875160175166,-0.044930403840758755,0.0969172884751316,1.4836779065972059,-1.549698070408678,-1.4960371499514604,2
-0.3920791104728162,-0.32067348714499955,-0.42756803746045546,0.550837259363738,-1.434308672910754,-0.7553871145109639,-1.0535770873773485,0.24185644944509407,-1.0700807052595622,-0.8823988028514075,0.06345847802374467,-0.11369934809723889,3
-0.20688729972056163,-0.2440619755482032,-0.8011598295046828,1.1969573973722505,-0.043061558541697756,1.3757065534130926,-1.1595604396584955,0.7780231751534277,-0.5077998537328461,-1.2670755950175936,0.4460992113119153,0.9705409849695154,4
-1.1593023264464406,0.981722210000541,1.5337888707717393,-0.1289199219202097,0.1722122443745303,0.5106091238597626,-0.013013264980631562,0.4413603473830787,0.24544430585954718,1.4670259984859366,-1.4574255158383436,-1.2561318205589684,2
-1.402697277720832,-1.0211215931728534,1.4676319909305742,-0.106839163451059,0.25253829023879454,0.04894249560057107,-0.09009206663964762,0.06729053874935757,0.2242261605189164,-0.7722127725832206,-1.638744311882148,-0.6451143569117291,2
2.1106559319790774,0.14994008409246468,-0.5248575666386397,-0.179065943490337,0.42191149551830015,0.16752414326129578,2.983425149513618,-0.2194963145364953,-0.582063362425054,0.0731372860016469,0.5267570387335365,-0.26082664392604404,3
-0.026986683561229467,-0.4848410119952776,-0.4937249173016207,-0.7671982952387434,1.2334340617355521,1.1908711026109662,-1.1402907392437414,-0.8803529764560692,0.5000620499471168,1.3928895777990618,0.8293852072194589,0.31560492555248343,3
0.4280560514300245,-0.8350650650092049,-0.7350029496635176,2.0663614668164736,0.051493672589950384,0.6578866862568905,0.1796837391669086,-0.31924826350548763,-1.3989619580393395,1.273314705723457,0.26478041526811086,0.2025145414452678,3
-0.03756907274707234,-0.47389651033859265,-0.7739187613347913,0.07104507767424849,0.32689725841028483,0.3890734849761729,-0.2731542205798108,1.226906945513893,-1.8657611555332172,0.4052897084338822,-0.04171932893404946,0.47700576500647146,3
0.4862591919521613,-0.09083895235461004,-0.738894530830645,-0.5441207260317162,0.9295721053804499,1.2436209458764131,0.1700488889595316,0.37901537927745843,-1.1337351412814547,-0.33049433773800535,0.37770137365838047,0.2574127861575085,3
0.13174915422641742,0.8394436884636332,-0.591014446479805,-0.8499495489408877,0.5306959119173323,0.5633589671252096,-0.523660325971613,0.4413603473830787,-0.9745990512267236,-0.29612763376368345,0.4499707870281533,-0.528730078121779,3
0.5285887486955337,-0.2002839689214623,-0.8011598295046828,-0.09672741424556008,0.05470671442452096,-0.08018912071324302,-0.10936176705440163,0.1421045004761018,0.2560533785298626,-0.5723898752479879,0.7971220762508103,1.1972707356310697,1
-0.9846929048800295,2.098061378982433,1.1874381468974036,-0.1997021663587021,0.120344569045034,-0.1937067834204848,0.10260493750789254,0.578519277215443,0.03326285245323921,1.3607372233076214,-1.4167739708178468,-1.5888151835151474,2
-1.3392029426057737,0.9598332066871705,1.603837331780032,-0.0992037609897639,0.051493672589950384,-0.043475229800491955,-0.05155266581013959,0.06729053874935757,0.160571724497024,1.4941296361564071,-1.5942211911454134,-1.3862406605269793,2
0.5762095000318276,-0.32067348714499955,-0.8789914528472303,-0.1276817485481078,0.03175641560615976,-0.05951118215318782,-0.05155266581013959,-0.0199924165985107,0.2030080151782856,-0.5524607299020537,0.8455167727037831,1.3691022415803833,1
-0.16455774297718967,-1.6449581876039105,-0.7972682483375555,3.010468663044179,-1.2594273959148414,-0.5684416699782199,-0.9957679861330864,-1.6409615873446355,-0.4653635630515846,1.3059099301114738,0.6880726935767787,0.39465839793811036,3
-1.2757086074907151,1.080222724910708,1.584379425944395,-0.10952187242394647,0.029002379747956414,-0.06457516710667073,-0.0611875160175166,0.0797595323704816,0.1711807971673394,1.3496654758932134,-1.5419549189762027,-1.434551115873751,2
-0.0005307105966213371,0.8394436884636332,-0.7855935048361733,0.8178699832803827,-0.4846253078069673,-0.6684553728095073,-1.0921164882068566,0.40395336651970654,-0.42292727237032296,-0.9842588790639596,0.8293852072194589,0.06856282434740014,3
0.4227648568371031,-0.25500647720488817,-0.5987976088140597,-0.12107815723023094,0.13503276028878514,0.29665575957510987,-0.16717086829866368,0.15457349409722584,0.107526361145447,-1.1248257842372815,0.6274180073557198,0.733929550259758,1
1.0577082079876887,-2.3235172903183945,-0.22520581676983215,0.4360998602156278,-4.1970656446650745,-3.4536470972251054,2.819632695988209,0.32913940479296233,-0.07282787424991481,-0.8885104074241605,-0.40435692102165793,1.1319418244235033,8
0.6979069756690235,0.24844059900263143,-0.9529314950226505,-0.21517933350997598,-0.26935150489073917,0.3705055401467356,0.1411443383374006,0.5161743091098229,0.0226537797829238,-0.4013535211902155,0.8816514793886695,1.341653119224263,1
-0.6989683968622662,-0.16745046395140686,-0.6182555146496965,0.14719274005851585,1.7415536775740692,2.4302814199759073,-2.123045460396196,0.216918462202846,-0.33805469100779983,0.4063525961856654,0.5267570387335365,0.46328120382841126,3
-1.3127469696411656,-0.8569540683225753,1.4598488285963196,-0.10560099007895708,0.08591912081749219,0.1569741746082064,-0.09972691684702464,0.05482154512823353,0.24544430585954718,-0.7550294205960597,-1.6026096051972616,-0.7000126016239698,2
-1.3550765263845381,0.9707777083438558,1.599945750612905,-0.1289199219202097,0.008806116787798555,-0.04600722227723341,-0.1382663176765327,0.16704248771834984,0.19239894250797018,1.4986469091014853,-1.570346474228613,-1.3554976434881243,2
0.49684158113800414,-0.1017834540112955,-0.5092912419701302,-0.028215154322587813,-0.1031913414458041,-0.07259314328301866,-0.09972691684702464,0.04235255150710949,0.4045803959142782,-1.1055166567465542,0.7125926731129513,0.6038207102917472,1
-1.4132796669066754,0.6862206652700402,1.599945750612905,-0.16235060296696122,0.0689358996919049,-0.04600722227723341,-0.08045721643227062,0.09222852599160565,0.0969172884751316,1.355245636590075,-1.6510043016502343,-1.2835809429150888,2
-1.1434287426676764,1.7150038209984504,1.5143309649361025,-0.179065943490337,0.120344569045034,-0.02237529249431318,-0.013013264980631562,0.12963550685497777,0.0969172884751316,1.3430224274445688,-1.4490371017864951,-1.6332827617320622,2
0.4915503865450827,-0.21122847057814728,-0.7739187613347913,-0.10560099007895708,-0.051323666116307794,0.01433859841843789,-0.12863146746915566,0.27926343030846623,0.19239894250797018,-1.1142854806987654,0.7403389657459893,1.1939768409483351,1
1.1688232944390418,-0.6271195335321859,-0.8011598295046828,0.9905951686885991,-1.147429937681239,-2.4514000751816134,1.3936748652964115,0.4413603473830787,-0.6775450164578926,-1.1498036464041856,0.42222449439511517,0.8750180391702167,3
-1.1804671048181268,1.649336811058339,1.51822254610323,-0.13923803335439228,0.09785327620304002,-0.06204317462992927,-0.09009206663964762,0.09222852599160565,0.11813543381576239,1.3430224274445688,-1.4529086775027327,-1.623401077683859,2
-0.07989862949044478,-1.2290671246498726,-0.4781585926331112,-0.768642830839529,0.04047752915713702,0.5895228893848712,-0.07082236622489362,1.6757907158743586,-0.07282787424991481,0.6238902893839506,-0.19464656972544297,1.495917186865659,3
0.5920830838105928,-0.5723970252487595,-0.7427861119977724,0.2941226468812756,-0.21518879967940677,-0.7136092386447298,-0.05155266581013959,-0.36912423798998373,0.6485890673315323,-0.5158796764448503,0.8855230551049075,1.4135698197972981,1
-0.2862552186143851,0.21560709403257577,-0.3263869271151437,0.21426046438070256,-0.7457997083599178,-0.6397594580731041,-1.0824816379994795,1.3515968817251331,-0.019782510898337803,-0.25184064410605206,0.24026043573193834,0.5456285708967723,3
0.48096799735923984,-0.07989445069792506,-0.5482070536414038,-0.07609119137719494,-0.131649711980572,-0.2464566266859317,-0.10936176705440163,0.02988355788598546,0.2030080151782856,-1.2537894981203042,0.6880726935767787,0.5110426767280606,1
-1.1381375480747544,1.5070582895214313,1.5026562214347203,-0.15471520050566612,0.10060731206124335,0.001256637288607048,-0.10936176705440163,0.10469751961272968,0.18178986983765477,1.3729604324531275,-1.3883824155654358,-1.5646599558417613,2
0.44922082980171024,-0.5723970252487595,-0.6377134204853334,0.8269499213424636,-0.03984851670712719,2.156404233741707,-0.08045721643227062,-0.6933180721392087,-0.9427718332157776,-0.6100338164569745,0.4744907665643258,-0.2196529603918635,3
0.8196044513062194,2.524896943593156,-0.2213142356027047,0.5405191479295554,1.8076505381709498,-0.027861276193919662,1.4033097155037886,4.331686357173778,-0.3911000543593767,-0.10790792771875012,0.02280693300324745,0.3770909596301933,3
0.34868813253620107,0.08427307415235331,-1.1124863228748727,-0.31196321876260846,0.22086687786945605,-0.4312920774880578,-0.4658512247273509,0.26679443668734215,-0.635108725776631,-0.5718584313720962,0.849388348420021,1.0979049127019138,1
0.5709183054389062,-0.13461695898135095,-0.7739187613347913,-0.16235060296696122,0.1088694196358534,-0.1253429865484656,-0.05155266581013959,0.09222852599160565,0.2348352331892318,-0.5585723344748069,0.8255136315032209,1.0946110180191797,1
1.2640647971116294,-0.12367245732466596,-0.4392427809618375,-0.4318596736278099,1.7874542752107916,1.0773534399037243,1.1720733105267405,-1.0798568743940538,0.4364076139252244,1.401126957875381,0.8371283586519348,-0.26796341573863547,3
0.5180063595096909,-0.4301185037118518,-0.633821839318206,-0.13655532438150478,-0.03709448084892385,-0.16754286116082315,-0.07082236622489362,-0.03246141021963473,0.425798541254909,-1.2626468960518304,0.7287242385972755,1.0463005626724076,1
-1.2333790507473426,0.11710657912240899,1.4364993415935552,-0.038533265756770387,-0.12338760440596197,-0.17809282981391253,-0.05155266581013959,0.22938745582397005,0.18178986983765477,-0.7362517369812239,-1.4735570813226677,-0.9953651581758249,2
-1.1804671048181268,-0.46295200868190767,1.3586677182510076,-0.15471520050566612,0.08913216265206275,-0.014357316317965248,-0.04191781560276259,0.09222852599160565,0.06509007046418541,-0.7351002752501256,-1.4651686672708195,-0.8169458628610428,2
1.4016358565275897,-0.3753959954284259,-1.1241610663762547,2.1720189279025033,-0.8059294912640241,2.1825681560013686,2.549856890181653,0.2543254430662181,-2.459869225070879,0.034961900916768644,0.341566666973494,0.09271805202078633,3
0.5497535270672204,-0.2002839689214623,-0.906232521017122,-0.11736363711392522,0.02578933791338585,-0.048539214753974866,-0.09972691684702464,0.10469751961272968,0.11813543381576239,-0.5524607299020537,0.8455167727037831,1.3553776804023232,1
0.9254283431646501,-1.666847190917281,-0.738894530830645,3.256658801863775,-2.423925557958489,-1.726406229341311,0.6903308001578901,-2.613543089792311,-0.8048538885016774,0.8166272683739623,0.7364673900297515,-0.43595204455809206,3
-1.3286205534199305,0.9379442033738001,1.5649215201087585,-0.1650333119398487,0.08316508495928886,-0.08314311193610804,-0.1479011678839097,0.09222852599160565,0.1711807971673394,1.499178352977377,-1.5419549189762027,-1.3450669769927985,2
-1.333911748012852,0.11710657912240899,1.5143309649361025,-0.106839163451059,0.12631164673780793,-0.03039326867066111,-0.19607541892079472,0.27926343030846623,0.24544430585954718,1.4625972995201735,-1.5219517777756404,-0.9882283863632338,8
0.7190717540407092,-2.2250167754082266,1.3431013935824982,0.9004148747538433,0.5798095513886253,-0.4785559370538983,1.3551354644669036,-0.7806010274870769,3.3432935255916436,1.349134032017322,-0.2636896699983507,0.31560492555248343,7
0.6714510027044154,0.5111086387630766,-0.7972682483375555,-0.10952187242394647,0.5421710613265129,0.4473093119412263,0.12187463792264656,0.8403681432590479,0.2348352331892318,-0.48328445205683357,0.8255136315032209,1.1495092627314203,1
1.8513873969259214,-0.8678985699792603,-0.48983333613449326,-0.3185668100804853,-0.5993768018987733,-1.7158562606882215,2.1933674325087034,-1.3791127213010308,0.903206811419102,0.6006839068033518,0.9500493170422043,0.5868022544309529,3
0.39630888387249497,-0.32067348714499955,-0.7583524366662819,-0.11591910151313965,-0.1490919390825265,0.030374550771133754,-0.21534511933554876,0.1795114813394739,-0.23196396430464578,-1.1763758401987645,0.6274180073557198,0.8541567061795651,7
0.2904849920140643,-0.3753959954284259,-0.8206177353403198,0.17422619201607417,-0.3239732160784389,-0.273042547691717,-0.49475577534948195,0.10469751961272968,0.05448099779387,-0.5696440818892147,0.7364673900297515,1.1835461744530096,1
-1.1222639642959902,-0.15650596229472138,1.3742340429195172,-0.10312464333475328,0.06618186383370156,0.022356574594785822,-0.0611875160175166,0.26679443668734215,0.18178986983765477,-0.7351002752501256,-1.3967708296172845,-0.8548256517124887,2
0.4280560514300245,-0.27689548051825863,-0.5482070536414038,-0.15842972062197186,0.14926194555616912,-0.08567510441284949,-0.1382663176765327,0.1795114813394739,0.21361708784860098,-1.1358975316516895,0.6074148661551576,0.733929550259758,1
-1.2069230777827349,1.9667273591022103,1.5765962636101405,0.03224897868172204,-0.08896215617842015,-0.2544746028622797,-0.20571026912817175,0.4787673282464508,0.35153503256270113,1.3624201289146114,-1.4490371017864951,-1.6096765165057987,2
3.2905923262005836,1.3538352663278381,0.1483859752743956,1.6381598422978971,-0.12338760440596197,-0.10677504171902827,4.746602737463611,0.40395336651970654,2.5900493659992505,-0.4455519368685317,1.0752302652005603,-0.11699324277997346,3
-1.1169727697030682,-0.46295200868190767,1.3898003675880266,-0.19330493726950893,-0.005423068479585392,-0.180624822290654,0.11223978771526956,-0.4314692060956039,-0.030391583568653183,1.4365565496014863,-1.4851718084713812,-1.001952947541294,2
0.4227648568371031,-0.17839496560809184,-0.22520581676983215,0.6257467483759035,-0.8316338259405888,0.9718537533728305,-0.2635193703724338,-1.4663956766488988,0.5424983406283784,1.1176902240665405,0.7487273797978377,-0.7686354075142707,3
0.49684158113800414,-0.2987844838316291,-0.6065807711483144,-0.17019236765693999,-0.008636110314155954,-0.08567510441284949,-0.02264811518800857,0.16704248771834984,0.05448099779387,-1.1281915954512616,0.6035432904389196,0.7476541114378182,1
0.21640826771316232,-1.3822901478434657,-1.2175590143873116,1.0151522739019536,-0.8031754554058208,0.3865414924994314,-0.12863146746915566,0.2543254430662181,-1.886979300873848,0.3625970504039256,0.20025415333081395,1.1286479297407688,3
0.4862591919521613,-0.5067300153086481,-0.4703754302988565,0.006453700096265612,0.06021478614092765,-0.28865650129828924,0.04479583626363049,0.11716651323385371,0.2348352331892318,-1.3119826025304318,0.5144970489654502,0.7240478662115547,1
3.491657720731602,-0.7803425567257785,0.4752787933130947,1.3608090069470697,-0.15184597494072982,-1.0507862367974667,5.112727045343937,-1.827996491661496,3.5236477609870054,-1.0938248914769397,1.055227123999998,0.1097365078815807,3
0.21640826771316232,-1.3056786362466688,-1.108594741707745,-2.608981186240332,1.6497524823006244,2.7708344080976324,-0.47548607493472794,-1.3915817149221545,-1.8127157921816401,0.5392135651585594,0.555148593985947,0.20580843612800198,3
-0.11693699164089578,-1.447957157783577,-0.5482070536414038,0.9559263142697456,-1.887806577561571,-1.4571710293144695,-0.9475937350962015,-0.4065312188533558,0.1393535791563932,0.6505510571578447,0.44222763559567735,1.0084207738209616,3
-1.1275551588889114,0.37977461888285413,1.44428250392781,-0.1301580952923116,0.11483649732862732,-0.11985700284885911,-0.04191781560276259,0.3914843728985825,0.2242261605189164,-0.7367831808571156,-1.4129023951016089,-1.0294020698974145,2
0.21640826771316232,-1.152455613053076,-0.8206177353403198,3.406477779888106,-0.691177997172218,0.6659046624332383,-0.38877242306833487,-1.4788646702700232,-0.635108725776631,0.2707458338539981,0.7564705312303136,-0.010490648038226379,3
0.33281454875743677,1.6931148176850799,-0.27579637194248796,1.7877724580935443,-1.336540399944535,0.4418233282416198,-0.5718345770084982,1.3141899008617615,0.6061527766502707,1.2212332058860826,0.7932505005345725,-0.28498187159943,3
0.7243629486336316,-0.2331174738915177,-0.7583524366662819,-0.0630903709701249,-0.03709448084892385,0.08565638651332214,0.24712769061854767,0.204449468581722,0.425798541254909,-0.5386431891288728,0.7932505005345725,1.3345163474116715,1
0.41747366224418164,-1.3385121412167247,-0.13959103109302992,-1.2366723654940504,-0.5507221684038475,-0.30722444612772665,-0.1479011678839097,-1.4663956766488988,0.9350340294300481,0.5303561672270332,0.5996717147226817,0.24368822497944834,3
-1.3074557750482443,-1.6887361942306514,1.4053666922565362,-0.08640930281137751,0.043231565015340354,0.513141116336504,0.006256435434122452,0.37901537927745843,0.6804162853424786,-0.7755785837972006,-1.5819612013773265,-0.24710208274798384,8
0.5815006946247491,-0.1455614606380364,-0.454809105630347,-0.11076004579604837,0.0345104514643631,-0.0409432373237505,0.006256435434122452,-0.11974436556750298,0.3409259598923858,-1.2327974650225868,0.7080758347773409,0.47700576500647146,1
-0.15926654838426824,0.3141076089427428,-0.4703754302988565,0.08528407145342043,0.0574607502827243,0.7346904580513812,-1.1210210388289876,0.578519277215443,-0.14709138294212257,-1.0529037130332881,0.5067538975329743,0.23984534784959147,3
-0.4873206131454039,0.37977461888285413,-0.21353107326844994,2.1680980455575143,-0.8977306865374689,0.33632364171072593,-1.728016601893739,0.7655541815323037,0.6804162853424786,-1.0091481672515485,0.5228854630172985,0.38093383676005016,3
0.45451202439463173,1.3647797679845237,0.17562704344428695,0.5083266402549058,3.881439539398068,-1.8897197440911344,0.7288702009873981,1.1396239901660248,-0.5608452170844231,1.192446662608622,-0.158511863040557,-0.8032213016829826,9
-1.3180381642340875,1.9776718607588955,1.6505363057855602,-0.12231633060233285,0.31266807314290085,0.059492464253660456,-0.4176769736904659,0.6283952516999393,0.5637164859690093,1.3402766340857957,-1.3967708296172845,-1.5646599558417613,2
-0.5719797266321488,-2.7831863598991733,-0.6143639334825692,0.7559613146752874,-1.0955622623517425,-3.2903335824752817,-0.9186891844740704,-0.06986839108300685,-0.8897264698642006,-0.995862070354259,-0.31208436645132337,1.1868400691357441,3
0.49684158113800414,-0.1127279556679805,-0.6921955568251166,-0.0915683585284688,0.11759053318683065,0.035438535724616665,-0.04191781560276259,0.4787673282464508,0.0014356344422930141,-1.2704414062315734,0.6235464316394819,0.9194856173871314,1
-1.1645935210393625,0.46733063213633597,1.4598488285963196,-0.11468092814103775,-0.011390146172359299,-0.12787497902520706,-0.12863146746915566,0.19198047496059795,0.21361708784860098,-0.7445776910368587,-1.40451398104976,-1.1287678928265699,2
0.6026654729964357,-0.33161798880168497,-0.7233282061621356,0.08260136248053299,-0.2638434331743325,-0.16754286116082315,0.03516098605625347,-0.05739939746188281,0.266662451200178,-1.2256229726980505,0.7809905107664862,1.035869896177082,1
-0.27567282942854177,-0.058005447384554605,-0.23298897910408692,-0.313407754363394,0.5251878402009256,-0.44986002231749517,-0.6585482288748912,1.1022170093026527,-0.11526416493117639,-0.14670333065883515,0.12346790162543078,0.3260355920478094,3
-0.08518982408336621,0.09521757580903854,-1.0035220501953064,0.41793998409146643,-0.39282411253352245,0.17554211943764375,-0.35986787244620383,0.553581289973195,-2.7781414051803415,1.2057327595059115,0.0750732051724581,-0.10656257628464766,3
0.20582587852731943,0.7409431735534663,-0.05008466424910041,0.5766325379491943,-1.113004489453697,-0.5393237564956931,-0.53329517617899,0.24185644944509407,0.8183342300565788,-0.3022392383364365,0.5996717147226817,-0.35360467748973096,3
1.2058616565894917,0.5111086387630766,-0.39254380695630897,-1.5668519313878926,-0.2064676861284295,-2.032355320280903,1.8465128250431309,1.46381782431525,-0.9958171965673545,0.37207446619065865,0.04281007420380964,0.10644261319884651,3
-1.6672570073669095,-0.7365645500990381,1.5960541694457775,-1.1491747805321821,0.43063260906927747,-0.3996421715287896,-0.8223406824003003,-1.453926683027775,0.31970781455175495,1.4487797587469924,-1.5135633637237922,-1.2424072593809081,7
0.5021327757309256,0.09521757580903854,-0.1901815862656857,0.11231752341097877,-0.5277718695854863,-0.38909220287570023,0.1700488889595316,0.42889135376195464,0.36214410523301654,-0.27788139402473927,0.41383608034326685,0.1783593137718816,3
1.4968773592001774,-0.09083895235461004,-1.4821865337519728,1.0461066082045012,0.2695215113643818,-1.842455884525294,1.3744051648816575,-1.6409615873446355,-1.3671347400283933,0.8260161101813802,1.2888121922130131,-0.20977127634366016,3
-1.4450268344642043,0.8175546851502626,1.6505363057855602,-0.08640930281137751,0.07444397140831159,-0.05655719093032279,-0.10936176705440163,0.11716651323385371,0.2030080151782856,1.3579914299488482,-1.6587474530827102,-1.3209117493194125,2
0.5338799432884551,-0.32067348714499955,-0.8128345730060651,1.1028562210925055,0.4705661290132259,2.62060285447764,0.31457164207018673,0.06729053874935757,-1.0170353419079852,1.4266362639181769,0.5267570387335365,0.21239622549347112,3
0.49684158113800414,-0.46295200868190767,-0.5754481218112955,-0.03997780135755595,0.0345104514643631,-0.22282469690301154,-0.10936176705440163,-0.13221335918862703,0.47884390460648596,-1.2521951664926294,0.7203358245454272,0.922779512069866,1
0.5338799432884551,-0.07989445069792506,-0.6610629074880976,0.25553291011743284,0.043231565015340354,0.07004243290674984,0.01589128564149947,0.4912363218675748,0.1287445064860778,-1.138111881134571,0.6358064214075682,0.9260734067526006,1
-1.048187239995088,1.4632802828946905,1.455957247429192,-0.1313962686644135,0.1318197184542146,-0.03545725362414402,-0.04191781560276259,0.10469751961272968,0.1393535791563932,1.345768220803342,-1.3445045574480738,-1.5410537106154978,2
1.3381415214125305,-2.8160198648692285,0.22621759861694307,-1.194161746385218,0.008806116787798555,2.3146537635380477,1.1142642092824784,-3.5861245922399854,2.653703802021143,0.4506395858432967,0.7687305209983999,0.7888277949719987,3
-1.3656589155703813,1.091167226567393,1.584379425944395,-0.1289199219202097,0.10611538377765004,-0.03292526114740257,-0.12863146746915566,0.15457349409722584,0.11813543381576239,1.4935981922805155,-1.5864780397129374,-1.4032591163877735,2
0.5391711378813766,-0.15650596229472138,-0.8284008976745746,-0.13407897763730098,0.051493672589950384,-0.06204317462992927,-0.09972691684702464,0.11716651323385371,0.1499626518267086,-0.5696440818892147,0.8171252174513726,1.1632338239094806,1
0.5285887486955337,-0.2002839689214623,-0.5326407289728943,-0.09404470527267261,0.27824262491535906,0.5393050385961657,-0.013013264980631562,0.19198047496059795,0.4364076139252244,-1.118182735788637,0.6719411280924545,0.8234136891407102,1
-1.1857582994110487,0.08427307415235331,1.44428250392781,-0.14955614478857485,0.08591912081749219,-0.03841124484700905,-0.07082236622489362,0.1795114813394739,0.18178986983765477,-0.7301401324084709,-1.4490371017864951,-0.9915222810459681,2
1.6556131969878245,0.14994008409246468,-1.2720411507270948,-0.971084177178191,1.3656277829293126,-0.7106552474218647,2.222271983130834,1.2518449327561412,-1.7914976468410093,0.5912950649959339,0.45448762536376364,0.991402317960167,3
0.16878751637686842,-0.8350650650092049,-1.1786432027160378,2.0754414048785543,-1.6610576252361622,0.6448047251270596,0.2856670914480557,2.536151275731917,-1.3459165946877625,0.3233587775672641,-0.215294973545378,1.8077392168311868,3
-1.0958079913313825,-2.017071243931208,-0.571556540644168,-0.9362089605306539,0.6913480036458607,0.61062282669105,-2.1423151608109503,0.1795114813394739,-0.6669359437875771,0.634430592922467,-0.11398874230382183,1.0770435797112625,3
-1.169884715632284,1.2881682563877268,1.4793067344319564,-0.10952187242394647,0.10060731206124335,-0.09875706554268034,-0.1479011678839097,0.12963550685497777,0.1287445064860778,1.4935981922805155,-1.409030819385371,-1.5097617111295207,2
0.5497535270672204,-0.45200750702522224,0.16006071877577746,1.6715905233446489,-1.9419692827729036,-0.6026235684142295,-0.17680571850604068,-2.2270042875374654,2.0595957324834804,1.8008613265251618,0.9823124480108528,-1.0875942092923894,3
0.6608686135185725,-0.04706094572786914,-0.6999787191593713,-1.4894660956315233,1.159075093564062,0.6237047878208808,0.1700488889595316,-0.06986839108300685,-0.1258732376014918,-1.1653040927843565,0.7242074002616652,0.5110426767280606,3
-0.1698489375701111,-1.7325142008573924,-0.8050514106718103,0.058250619495862126,-0.6452773995354957,2.0403545785577237,-0.6392785284601371,0.5161743091098229,-0.6563268711172617,0.31671572911861945,0.03506692277133372,1.3927084868066468,3
0.13704034881933885,-0.04706094572786914,-0.6610629074880976,0.41793998409146643,0.4388947166438875,0.8110722310997484,-0.6778179292896452,0.3914843728985825,-0.1258732376014918,0.4528539353261783,0.6112864418713956,0.6861680773601083,3
0.6767421972973368,0.6424426586432993,-1.1825347838831652,2.108872085925306,0.2809966607735624,-2.604585620024471,0.32420649227756376,0.19198047496059795,-2.258296844334887,1.39067522831618,0.5996717147226817,-0.44308881637068326,3
-0.14868415919842443,-1.9076262273643558,-1.0696789300364715,-1.8016921476298877,1.038356521779482,-0.2624925790386276,-0.9572285853035783,-0.6185041104124644,-1.091298850600193,0.739656480348999,0.3615698081740562,1.2691874362041051,3
-0.22805207809224787,-0.2331174738915177,-0.6182555146496965,0.8488243175829305,0.6027598502069865,1.607805863781059,-1.37152714422079,0.01741456426486141,-0.009173438228022395,-0.381955819720173,0.6519379868918923,0.5900961491136871,3
-1.3815324993491458,-1.404179151156836,1.4092582734236638,-0.13407897763730098,-0.10869941316221078,-0.3810742266993523,-0.013013264980631562,-0.2444343017787434,0.0863082158048162,-0.757863787934148,-1.6548758773664722,-0.6077835505074055,2
-1.36036772097746,-0.8678985699792603,1.4364993415935552,-0.006340758082120776,0.10336134791944672,0.21478800282713625,-0.013013264980631562,0.27926343030846623,0.266662451200178,-0.7805387266388553,-1.6464874633146234,-0.6764063563977064,2
0.5180063595096909,-0.3097289854883145,-0.6921955568251166,-0.1353171510094029,0.1607370949653497,0.024888567071527277,-0.05155266581013959,0.10469751961272968,0.19239894250797018,-1.2654812633899188,0.704204259061103,0.9809716514648413,1
2.544533888598645,-0.5614525235920744,-0.2057479109341952,0.5314392098674747,-0.5048215707671251,1.2883528129655122,3.8601965183849254,-0.5810971295490924,0.9562521747706788,0.4313304583525694,0.7125926731129513,0.2711373473355687,3
-1.1804671048181268,1.6712258143717096,1.5026562214347203,-0.21146481339367026,0.08913216265206275,-0.1304069715019485,-0.07082236622489362,0.16704248771834984,0.07569914313450078,1.4792492076314427,-1.4451655260702572,-1.6025397446932075,2
0.32752335416451533,0.09521757580903854,-0.3030374401123795,0.6333821508371985,-1.3397534417791057,0.18060610439112662,-0.21534511933554876,-0.13221335918862703,0.8925977387487866,-1.1580410264805052,0.7932505005345725,0.20580843612800198,3
0.5815006946247491,-0.21122847057814728,-0.8634251281787209,-0.11983998385812904,0.02578933791338585,-0.05655719093032279,-0.05155266581013959,0.10469751961272968,0.2242261605189164,-0.5524607299020537,0.8455167727037831,1.3586715750850573,1
-0.825957067092383,2.2622289038327112,1.5804878447772677,-0.36107742918931746,0.24978425438059118,-0.11183902667251118,0.5072686462177268,0.902713111364668,0.31970781455175495,1.361268667183513,-1.4206455465340844,-1.5822273941496785,2
0.41747366224418164,-0.15650596229472138,-0.3769774822877995,-0.25913448821959373,-0.005423068479585392,-0.26502457151536907,-0.12863146746915566,0.216918462202846,0.4682348319361706,-1.299227949509034,0.5790233109027472,0.5456285708967723,1
1.110620153916904,0.33599661225611327,-1.0307631183651977,-0.007578931454222676,1.1475999441548812,-1.0799041502799933,1.3840400150890346,1.4762868179363737,-2.0567244635988944,-1.0805387945796503,0.22025729453137613,0.5555102549449756,3
-0.2386344672780912,-0.8131760616958345,-0.34973641411790796,-0.4694175992482345,-0.9523523977251686,-0.7001052787687754,-1.2270043911101347,-0.7307250530025808,0.04387192512355459,0.4584340960230398,0.4867507563324121,0.167928647276556,3
0.5021327757309256,-0.06894994904123959,-0.5559902159756586,-0.11220458139683394,0.10611538377765004,-0.07259314328301866,-0.0611875160175166,0.09222852599160565,0.18178986983765477,-1.1016194016566827,0.6803295421443029,0.5351979044014463,1
0.09471079207596642,-0.2331174738915177,0.3118323842937451,1.7890106314656464,-1.8386929380902781,-0.924186612960394,-0.9186891844740704,-1.0175119062884337,2.4521314212851504,1.3823492742605454,0.8332567829356968,-0.15816692631415402,3
1.5868276672798438,0.9051106984037445,-0.12013312525739314,-0.037295092384668486,-1.537585017593379,-0.979890447448706,2.569126590596407,1.5635697732842417,-0.5290179990734769,0.26463422928124497,0.01893535728700949,-0.1477362598188282,3
1.5021685537930989,0.10616207746572377,-0.25244688493972367,0.24521479868325027,0.7317405295661764,-1.0588042129738144,1.72125977234723,-0.007523422977386649,0.8925977387487866,-0.960432478628154,0.7164642488291892,0.22996366380138816,3
-1.1116815751101468,1.036444718283967,1.4364993415935552,-0.25005455015751304,0.25529232609699787,-0.03039326867066111,-0.09009206663964762,-0.007523422977386649,0.2030080151782856,1.5063528453019133,-1.4006424053335225,-1.4136897828830994,2
0.8460604242708265,-0.747509051755723,-0.6960871379922439,-0.5853931717684465,2.27216458625458,2.0137686575519385,0.6325216989136279,-0.5187521614434721,-0.41231819970000755,0.46392568274058615,0.5874117249545954,0.4973181155500004,3
0.6185390567752,-0.2002839689214623,-0.7933766671704282,-0.11344275476893585,0.06618186383370156,0.10675632381950091,0.03516098605625347,0.10469751961272968,0.2348352331892318,-0.578501479820741,0.8132536417351346,1.1868400691357441,1
0.33281454875743677,0.8722771934336888,-1.4510538844149539,2.436368942846261,0.8777044300509536,0.7503044116579534,-0.3309633218240728,2.3366473777939323,-0.8472901791829389,0.5514367743040657,0.6358064214075682,2.205751490994932,3
0.40689127305833783,-0.03611644407118416,0.043313283761956575,1.1672412364418046,-1.8790854640105936,0.21478800282713625,-0.4080421234830889,-0.6185041104124644,2.133859241175688,-1.0529037130332881,0.9261746001254042,0.2607066808402427,3
0.8830987864212776,0.43449712716628025,-0.1434826122601572,0.3457132040521884,-0.4446917878630187,0.43929133576487833,0.35311104289969475,-0.28184128264211544,2.0277685144725344,-1.0340374554391374,1.079101840916798,0.421558537847108,3
0.4280560514300245,-0.04706094572786914,-0.6766292321566071,-0.29916876058422204,0.31542210900110423,0.00927461346495498,-0.22497996954292573,0.04235255150710949,-0.07282787424991481,-1.2660127072658103,0.7164642488291892,0.5456285708967723,1
0.3751441055008092,-0.16745046395140686,-0.6921955568251166,-0.19330493726950893,0.06021478614092765,-0.1253429865484656,-0.35023302223882685,-0.2444343017787434,-0.09404601959054558,-1.249360799154541,0.7525989555140756,0.4665750985111454,1
0.5709183054389062,-0.47389651033859265,-0.6532797451538429,-0.036056919012566586,-0.005423068479585392,-0.0409432373237505,0.006256435434122452,-0.05739939746188281,0.4045803959142782,-1.241654862954113,0.7287242385972755,1.0874742462065883,1
0.5338799432884551,-0.2002839689214623,-0.7972682483375555,-0.10952187242394647,0.0230353020551825,-0.09369308058919742,-0.09009206663964762,0.16704248771834984,0.21361708784860098,-0.5723898752479879,0.7887336621989621,1.2005646303138042,1
